USUBJID,SITEID,SITE,RFSTDTC,SAFFL,VISIT,VISITNUM,DT,DY,CAT,TEST,STRESU,STRESN,STNRLO,STNRHI,VISITN
01-001,1,Site 01,2015-05-21,Y,Screening,0,2015-05-21,1,Blood,Platelet count,x 109/L,73.9216799073289,150,350,0
01-001,1,Site 01,2015-05-21,Y,Screening,0,2015-05-21,1,Blood,RBC count,x 1012 cells/L,5.73306802044415,4.2,5.9,0
01-001,1,Site 01,2015-05-21,Y,Screening,0,2015-05-21,1,Blood,WBC count,x 109 cells/L,5.36456259077355,4.5,11,0
01-001,1,Site 01,2015-05-21,Y,Screening,0,2015-05-21,1,Serum,Albumin,g/L,48.8951754817963,35,55,0
01-001,1,Site 01,2015-05-21,Y,Screening,0,2015-05-21,1,Serum,Alkaline phosphatase (ALP),µkat/L,,0.5,1.5,0
01-001,1,Site 01,2015-05-21,Y,Screening,0,2015-05-21,1,Serum,"Aminotransferase, alanine (ALT)",pkat/L,0,0,0.58,0
01-001,1,Site 01,2015-05-21,Y,Screening,0,2015-05-21,1,Serum,"Aminotransferase, aspartate (AST)",pkat/L,0.230454585959809,0,0.58,0
01-001,1,Site 01,2015-05-21,Y,Screening,0,2015-05-21,1,Serum,Calcium,mmol/L,2.40364284621797,2.2,2.6,0
01-001,1,Site 01,2015-05-21,Y,Screening,0,2015-05-21,1,Serum,Chloride,mmol/L,101.977738128482,98,106,0
01-001,1,Site 01,2015-05-21,Y,Screening,0,2015-05-21,1,Serum,Creatinine,µmol/L,54.9522524666975,61.9,115,0
01-001,1,Site 01,2015-05-21,Y,Screening,0,2015-05-21,1,Serum,Direct Bilirubin,µmol/L,3.17702878376026,0,5.1,0
01-001,1,Site 01,2015-05-21,Y,Screening,0,2015-05-21,1,Serum,IgE,mg/L,0.0607685666438798,0.1,0.4,0
01-001,1,Site 01,2015-05-21,Y,Screening,0,2015-05-21,1,Serum,Magnesium,mmol/L,0.671342726996378,0.62,0.99,0
01-001,1,Site 01,2015-05-21,Y,Screening,0,2015-05-21,1,Serum,Potassium,mmol/L,2.9714672889195,3.5,5,0
01-001,1,Site 01,2015-05-21,Y,Screening,0,2015-05-21,1,Serum,Sodium,mmol/L,144.559968626885,136,145,0
01-001,1,Site 01,2015-05-21,Y,Screening,0,2015-05-21,1,Serum,Total Bilirubin,µmol/L,28.7068580552978,5.1,20.5,0
01-001,1,Site 01,2015-05-21,Y,Screening,0,2015-05-21,1,Vital Signs,Diastolic Blood Pressure,mmHg,67.9467098606831,60,80,0
01-001,1,Site 01,2015-05-21,Y,Screening,0,2015-05-21,1,Vital Signs,Heart Rate,beats/minute,70.8427632226944,50,80,0
01-001,1,Site 01,2015-05-21,Y,Screening,0,2015-05-21,1,Vital Signs,Respiratory Rate,breaths/minute,15.4137662310258,16,20,0
01-001,1,Site 01,2015-05-21,Y,Screening,0,2015-05-21,1,Vital Signs,Systolic Blood Pressure,mmHg,77.3492126417281,90,120,0
01-001,1,Site 01,2015-05-21,Y,Screening,0,2015-05-21,1,Vital Signs,Temperature,°C,36.8491787281381,36.6,37,0
01-001,1,Site 01,2015-05-21,Y,Visit 1,1,2015-07-17,58,Blood,Platelet count,x 109/L,295.133147295951,150,350,1
01-001,1,Site 01,2015-05-21,Y,Visit 1,1,2015-07-17,58,Blood,RBC count,x 1012 cells/L,4.52362139757257,4.2,5.9,1
01-001,1,Site 01,2015-05-21,Y,Visit 1,1,2015-07-17,58,Blood,WBC count,x 109 cells/L,9.78481972051961,4.5,11,1
01-001,1,Site 01,2015-05-21,Y,Visit 1,1,2015-07-17,58,Serum,Albumin,g/L,53.6771105731966,35,55,1
01-001,1,Site 01,2015-05-21,Y,Visit 1,1,2015-07-17,58,Serum,Alkaline phosphatase (ALP),µkat/L,0.617051970163285,0.5,1.5,1
01-001,1,Site 01,2015-05-21,Y,Visit 1,1,2015-07-17,58,Serum,"Aminotransferase, alanine (ALT)",pkat/L,0.300926047510991,0,0.58,1
01-001,1,Site 01,2015-05-21,Y,Visit 1,1,2015-07-17,58,Serum,"Aminotransferase, aspartate (AST)",pkat/L,0,0,0.58,1
01-001,1,Site 01,2015-05-21,Y,Visit 1,1,2015-07-17,58,Serum,Calcium,mmol/L,2.747644933767,2.2,2.6,1
01-001,1,Site 01,2015-05-21,Y,Visit 1,1,2015-07-17,58,Serum,Chloride,mmol/L,,98,106,1
01-001,1,Site 01,2015-05-21,Y,Visit 1,1,2015-07-17,58,Serum,Creatinine,µmol/L,31.7473259113718,61.9,115,1
01-001,1,Site 01,2015-05-21,Y,Visit 1,1,2015-07-17,58,Serum,Direct Bilirubin,µmol/L,1.83234574527008,0,5.1,1
01-001,1,Site 01,2015-05-21,Y,Visit 1,1,2015-07-17,58,Serum,IgE,mg/L,0.148341857697348,0.1,0.4,1
01-001,1,Site 01,2015-05-21,Y,Visit 1,1,2015-07-17,58,Serum,Magnesium,mmol/L,0.915498917650744,0.62,0.99,1
01-001,1,Site 01,2015-05-21,Y,Visit 1,1,2015-07-17,58,Serum,Potassium,mmol/L,4.04035321731168,3.5,5,1
01-001,1,Site 01,2015-05-21,Y,Visit 1,1,2015-07-17,58,Serum,Sodium,mmol/L,144.904381724821,136,145,1
01-001,1,Site 01,2015-05-21,Y,Visit 1,1,2015-07-17,58,Serum,Total Bilirubin,µmol/L,18.1608605968951,5.1,20.5,1
01-001,1,Site 01,2015-05-21,Y,Visit 1,1,2015-07-17,58,Vital Signs,Diastolic Blood Pressure,mmHg,57.3831459384925,60,80,1
01-001,1,Site 01,2015-05-21,Y,Visit 1,1,2015-07-17,58,Vital Signs,Heart Rate,beats/minute,95.9873858220087,50,80,1
01-001,1,Site 01,2015-05-21,Y,Visit 1,1,2015-07-17,58,Vital Signs,Respiratory Rate,breaths/minute,18.0364284621797,16,20,1
01-001,1,Site 01,2015-05-21,Y,Visit 1,1,2015-07-17,58,Vital Signs,Systolic Blood Pressure,mmHg,104.916517981808,90,120,1
01-001,1,Site 01,2015-05-21,Y,Visit 1,1,2015-07-17,58,Vital Signs,Temperature,°C,36.5476914221918,36.6,37,1
01-001,1,Site 01,2015-05-21,Y,Visit 2,2,2015-09-04,107,Blood,Platelet count,x 109/L,210.526405581847,150,350,2
01-001,1,Site 01,2015-05-21,Y,Visit 2,2,2015-09-04,107,Blood,RBC count,x 1012 cells/L,3.89772984219502,4.2,5.9,2
01-001,1,Site 01,2015-05-21,Y,Visit 2,2,2015-09-04,107,Blood,WBC count,x 109 cells/L,,4.5,11,2
01-001,1,Site 01,2015-05-21,Y,Visit 2,2,2015-09-04,107,Serum,Albumin,g/L,50.6477376065677,35,55,2
01-001,1,Site 01,2015-05-21,Y,Visit 2,2,2015-09-04,107,Serum,Alkaline phosphatase (ALP),µkat/L,0.96943733296846,0.5,1.5,2
01-001,1,Site 01,2015-05-21,Y,Visit 2,2,2015-09-04,107,Serum,"Aminotransferase, alanine (ALT)",pkat/L,0.0987605029988369,0,0.58,2
01-001,1,Site 01,2015-05-21,Y,Visit 2,2,2015-09-04,107,Serum,"Aminotransferase, aspartate (AST)",pkat/L,0.398684801032776,0,0.58,2
01-001,1,Site 01,2015-05-21,Y,Visit 2,2,2015-09-04,107,Serum,Calcium,mmol/L,2.68664699718718,2.2,2.6,2
01-001,1,Site 01,2015-05-21,Y,Visit 2,2,2015-09-04,107,Serum,Chloride,mmol/L,101.775787846845,98,106,2
01-001,1,Site 01,2015-05-21,Y,Visit 2,2,2015-09-04,107,Serum,Creatinine,µmol/L,63.5098720681291,61.9,115,2
01-001,1,Site 01,2015-05-21,Y,Visit 2,2,2015-09-04,107,Serum,Direct Bilirubin,µmol/L,0.117785498221554,0,5.1,2
01-001,1,Site 01,2015-05-21,Y,Visit 2,2,2015-09-04,107,Serum,IgE,mg/L,0.282980834483,0.1,0.4,2
01-001,1,Site 01,2015-05-21,Y,Visit 2,2,2015-09-04,107,Serum,Magnesium,mmol/L,1.06003938274269,0.62,0.99,2
01-001,1,Site 01,2015-05-21,Y,Visit 2,2,2015-09-04,107,Serum,Potassium,mmol/L,4.66593579558087,3.5,5,2
01-001,1,Site 01,2015-05-21,Y,Visit 2,2,2015-09-04,107,Serum,Sodium,mmol/L,144.038960616888,136,145,2
01-001,1,Site 01,2015-05-21,Y,Visit 2,2,2015-09-04,107,Serum,Total Bilirubin,µmol/L,14.4584676078576,5.1,20.5,2
01-001,1,Site 01,2015-05-21,Y,Visit 2,2,2015-09-04,107,Vital Signs,Diastolic Blood Pressure,mmHg,,60,80,2
01-001,1,Site 01,2015-05-21,Y,Visit 2,2,2015-09-04,107,Vital Signs,Heart Rate,beats/minute,54.1629238105171,50,80,2
01-001,1,Site 01,2015-05-21,Y,Visit 2,2,2015-09-04,107,Vital Signs,Respiratory Rate,breaths/minute,14.4784335981466,16,20,2
01-001,1,Site 01,2015-05-21,Y,Visit 2,2,2015-09-04,107,Vital Signs,Systolic Blood Pressure,mmHg,79.4293457783901,90,120,2
01-001,1,Site 01,2015-05-21,Y,Visit 2,2,2015-09-04,107,Vital Signs,Temperature,°C,36.9804430500838,36.6,37,2
01-001,1,Site 01,2015-05-21,Y,Visit 3,3,2015-10-29,162,Blood,Platelet count,x 109/L,379.422736215712,150,350,3
01-001,1,Site 01,2015-05-21,Y,Visit 3,3,2015-10-29,162,Blood,RBC count,x 1012 cells/L,5.29357870243644,4.2,5.9,3
01-001,1,Site 01,2015-05-21,Y,Visit 3,3,2015-10-29,162,Blood,WBC count,x 109 cells/L,1.08220907759321,4.5,11,3
01-001,1,Site 01,2015-05-21,Y,Visit 3,3,2015-10-29,162,Serum,Albumin,g/L,40.9352865412019,35,55,3
01-001,1,Site 01,2015-05-21,Y,Visit 3,3,2015-10-29,162,Serum,Alkaline phosphatase (ALP),µkat/L,1.03753773086815,0.5,1.5,3
01-001,1,Site 01,2015-05-21,Y,Visit 3,3,2015-10-29,162,Serum,"Aminotransferase, alanine (ALT)",pkat/L,0,0,0.58,3
01-001,1,Site 01,2015-05-21,Y,Visit 3,3,2015-10-29,162,Serum,"Aminotransferase, aspartate (AST)",pkat/L,0,0,0.58,3
01-001,1,Site 01,2015-05-21,Y,Visit 3,3,2015-10-29,162,Serum,Calcium,mmol/L,1.99691846521027,2.2,2.6,3
01-001,1,Site 01,2015-05-21,Y,Visit 3,3,2015-10-29,162,Serum,Chloride,mmol/L,102.058360751085,98,106,3
01-001,1,Site 01,2015-05-21,Y,Visit 3,3,2015-10-29,162,Serum,Creatinine,µmol/L,83.7500879031514,61.9,115,3
01-001,1,Site 01,2015-05-21,Y,Visit 3,3,2015-10-29,162,Serum,Direct Bilirubin,µmol/L,1.93316006105932,0,5.1,3
01-001,1,Site 01,2015-05-21,Y,Visit 3,3,2015-10-29,162,Serum,IgE,mg/L,0.267821304243956,0.1,0.4,3
01-001,1,Site 01,2015-05-21,Y,Visit 3,3,2015-10-29,162,Serum,Magnesium,mmol/L,0.66411072342421,0.62,0.99,3
01-001,1,Site 01,2015-05-21,Y,Visit 3,3,2015-10-29,162,Serum,Potassium,mmol/L,5.14411601922635,3.5,5,3
01-001,1,Site 01,2015-05-21,Y,Visit 3,3,2015-10-29,162,Serum,Sodium,mmol/L,,136,145,3
01-001,1,Site 01,2015-05-21,Y,Visit 3,3,2015-10-29,162,Serum,Total Bilirubin,µmol/L,22.8563889839518,5.1,20.5,3
01-001,1,Site 01,2015-05-21,Y,Visit 3,3,2015-10-29,162,Vital Signs,Diastolic Blood Pressure,mmHg,,60,80,3
01-001,1,Site 01,2015-05-21,Y,Visit 3,3,2015-10-29,162,Vital Signs,Heart Rate,beats/minute,,50,80,3
01-001,1,Site 01,2015-05-21,Y,Visit 3,3,2015-10-29,162,Vital Signs,Respiratory Rate,breaths/minute,19.7354221146393,16,20,3
01-001,1,Site 01,2015-05-21,Y,Visit 3,3,2015-10-29,162,Vital Signs,Systolic Blood Pressure,mmHg,93.5115591048986,90,120,3
01-001,1,Site 01,2015-05-21,Y,Visit 3,3,2015-10-29,162,Vital Signs,Temperature,°C,36.5785360543794,36.6,37,3
01-001,1,Site 01,2015-05-21,Y,Unscheduled 3.1,3.1,2015-11-06,170,Blood,Platelet count,x 109/L,266.956197066623,150,350,3.1
01-001,1,Site 01,2015-05-21,Y,Unscheduled 3.1,3.1,2015-11-06,170,Blood,RBC count,x 1012 cells/L,5.30449288631539,4.2,5.9,3.1
01-001,1,Site 01,2015-05-21,Y,Unscheduled 3.1,3.1,2015-11-06,170,Blood,WBC count,x 109 cells/L,9.80758435683516,4.5,11,3.1
01-001,1,Site 01,2015-05-21,Y,Unscheduled 3.1,3.1,2015-11-06,170,Serum,Albumin,g/L,49.7808297136377,35,55,3.1
01-001,1,Site 01,2015-05-21,Y,Unscheduled 3.1,3.1,2015-11-06,170,Serum,Alkaline phosphatase (ALP),µkat/L,0.904530281533516,0.5,1.5,3.1
01-001,1,Site 01,2015-05-21,Y,Unscheduled 3.1,3.1,2015-11-06,170,Serum,"Aminotransferase, alanine (ALT)",pkat/L,0.419277490110206,0,0.58,3.1
01-001,1,Site 01,2015-05-21,Y,Unscheduled 3.1,3.1,2015-11-06,170,Serum,"Aminotransferase, aspartate (AST)",pkat/L,0.356221243849836,0,0.58,3.1
01-001,1,Site 01,2015-05-21,Y,Unscheduled 3.1,3.1,2015-11-06,170,Serum,Calcium,mmol/L,2.39381305408797,2.2,2.6,3.1
01-001,1,Site 01,2015-05-21,Y,Unscheduled 3.1,3.1,2015-11-06,170,Serum,Chloride,mmol/L,105.164704547483,98,106,3.1
01-001,1,Site 01,2015-05-21,Y,Unscheduled 3.1,3.1,2015-11-06,170,Serum,Creatinine,µmol/L,72.1618402191612,61.9,115,3.1
01-001,1,Site 01,2015-05-21,Y,Unscheduled 3.1,3.1,2015-11-06,170,Serum,Direct Bilirubin,µmol/L,1.2215754309901,0,5.1,3.1
01-001,1,Site 01,2015-05-21,Y,Unscheduled 3.1,3.1,2015-11-06,170,Serum,IgE,mg/L,0.362410726928693,0.1,0.4,3.1
01-001,1,Site 01,2015-05-21,Y,Unscheduled 3.1,3.1,2015-11-06,170,Serum,Magnesium,mmol/L,0.859837302250049,0.62,0.99,3.1
01-001,1,Site 01,2015-05-21,Y,Unscheduled 3.1,3.1,2015-11-06,170,Serum,Potassium,mmol/L,3.1431655630325,3.5,5,3.1
01-001,1,Site 01,2015-05-21,Y,Unscheduled 3.1,3.1,2015-11-06,170,Serum,Sodium,mmol/L,140.318374215466,136,145,3.1
01-001,1,Site 01,2015-05-21,Y,Unscheduled 3.1,3.1,2015-11-06,170,Serum,Total Bilirubin,µmol/L,3.45226470818673,5.1,20.5,3.1
01-001,1,Site 01,2015-05-21,Y,Unscheduled 3.1,3.1,2015-11-06,170,Vital Signs,Diastolic Blood Pressure,mmHg,89.3429816297352,60,80,3.1
01-001,1,Site 01,2015-05-21,Y,Unscheduled 3.1,3.1,2015-11-06,170,Vital Signs,Heart Rate,beats/minute,60.7785043839416,50,80,3.1
01-001,1,Site 01,2015-05-21,Y,Unscheduled 3.1,3.1,2015-11-06,170,Vital Signs,Respiratory Rate,breaths/minute,19.3924313238689,16,20,3.1
01-001,1,Site 01,2015-05-21,Y,Unscheduled 3.1,3.1,2015-11-06,170,Vital Signs,Systolic Blood Pressure,mmHg,131.073370032525,90,120,3.1
01-001,1,Site 01,2015-05-21,Y,Unscheduled 3.1,3.1,2015-11-06,170,Vital Signs,Temperature,°C,36.3728612121384,36.6,37,3.1
01-001,1,Site 01,2015-05-21,Y,Visit 4,4,2015-12-24,218,Blood,Platelet count,x 109/L,411.559540660714,150,350,4
01-001,1,Site 01,2015-05-21,Y,Visit 4,4,2015-12-24,218,Blood,RBC count,x 1012 cells/L,3.76575681268297,4.2,5.9,4
01-001,1,Site 01,2015-05-21,Y,Visit 4,4,2015-12-24,218,Blood,WBC count,x 109 cells/L,11.8172985497157,4.5,11,4
01-001,1,Site 01,2015-05-21,Y,Visit 4,4,2015-12-24,218,Serum,Albumin,g/L,42.9231432325227,35,55,4
01-001,1,Site 01,2015-05-21,Y,Visit 4,4,2015-12-24,218,Serum,Alkaline phosphatase (ALP),µkat/L,1.27026248970029,0.5,1.5,4
01-001,1,Site 01,2015-05-21,Y,Visit 4,4,2015-12-24,218,Serum,"Aminotransferase, alanine (ALT)",pkat/L,0.524351713432945,0,0.58,4
01-001,1,Site 01,2015-05-21,Y,Visit 4,4,2015-12-24,218,Serum,"Aminotransferase, aspartate (AST)",pkat/L,0.357285727530329,0,0.58,4
01-001,1,Site 01,2015-05-21,Y,Visit 4,4,2015-12-24,218,Serum,Calcium,mmol/L,,2.2,2.6,4
01-001,1,Site 01,2015-05-21,Y,Visit 4,4,2015-12-24,218,Serum,Chloride,mmol/L,102.070454802248,98,106,4
01-001,1,Site 01,2015-05-21,Y,Visit 4,4,2015-12-24,218,Serum,Creatinine,µmol/L,68.9151216120385,61.9,115,4
01-001,1,Site 01,2015-05-21,Y,Visit 4,4,2015-12-24,218,Serum,Direct Bilirubin,µmol/L,4.90346160027636,0,5.1,4
01-001,1,Site 01,2015-05-21,Y,Visit 4,4,2015-12-24,218,Serum,IgE,mg/L,0.483463217915164,0.1,0.4,4
01-001,1,Site 01,2015-05-21,Y,Visit 4,4,2015-12-24,218,Serum,Magnesium,mmol/L,0.580954072233235,0.62,0.99,4
01-001,1,Site 01,2015-05-21,Y,Visit 4,4,2015-12-24,218,Serum,Potassium,mmol/L,4.80061009624532,3.5,5,4
01-001,1,Site 01,2015-05-21,Y,Visit 4,4,2015-12-24,218,Serum,Sodium,mmol/L,142.840314866839,136,145,4
01-001,1,Site 01,2015-05-21,Y,Visit 4,4,2015-12-24,218,Serum,Total Bilirubin,µmol/L,,5.1,20.5,4
01-001,1,Site 01,2015-05-21,Y,Visit 4,4,2015-12-24,218,Vital Signs,Diastolic Blood Pressure,mmHg,67.2047095641558,60,80,4
01-001,1,Site 01,2015-05-21,Y,Visit 4,4,2015-12-24,218,Vital Signs,Heart Rate,beats/minute,54.8341857697348,50,80,4
01-001,1,Site 01,2015-05-21,Y,Visit 4,4,2015-12-24,218,Vital Signs,Respiratory Rate,breaths/minute,19.1945828935216,16,20,4
01-001,1,Site 01,2015-05-21,Y,Visit 4,4,2015-12-24,218,Vital Signs,Systolic Blood Pressure,mmHg,,90,120,4
01-001,1,Site 01,2015-05-21,Y,Visit 4,4,2015-12-24,218,Vital Signs,Temperature,°C,36.6761462111935,36.6,37,4
01-001,1,Site 01,2015-05-21,Y,Visit 5,5,2016-02-28,284,Blood,Platelet count,x 109/L,103.89990587582,150,350,5
01-001,1,Site 01,2015-05-21,Y,Visit 5,5,2016-02-28,284,Blood,RBC count,x 1012 cells/L,5.28752266880987,4.2,5.9,5
01-001,1,Site 01,2015-05-21,Y,Visit 5,5,2016-02-28,284,Blood,WBC count,x 109 cells/L,,4.5,11,5
01-001,1,Site 01,2015-05-21,Y,Visit 5,5,2016-02-28,284,Serum,Albumin,g/L,40.4973596954642,35,55,5
01-001,1,Site 01,2015-05-21,Y,Visit 5,5,2016-02-28,284,Serum,Alkaline phosphatase (ALP),µkat/L,1.46652826950021,0.5,1.5,5
01-001,1,Site 01,2015-05-21,Y,Visit 5,5,2016-02-28,284,Serum,"Aminotransferase, alanine (ALT)",pkat/L,0.556524116745351,0,0.58,5
01-001,1,Site 01,2015-05-21,Y,Visit 5,5,2016-02-28,284,Serum,"Aminotransferase, aspartate (AST)",pkat/L,0,0,0.58,5
01-001,1,Site 01,2015-05-21,Y,Visit 5,5,2016-02-28,284,Serum,Calcium,mmol/L,2.37699420670435,2.2,2.6,5
01-001,1,Site 01,2015-05-21,Y,Visit 5,5,2016-02-28,284,Serum,Chloride,mmol/L,92.7189184478615,98,106,5
01-001,1,Site 01,2015-05-21,Y,Visit 5,5,2016-02-28,284,Serum,Creatinine,µmol/L,67.0390265713637,61.9,115,5
01-001,1,Site 01,2015-05-21,Y,Visit 5,5,2016-02-28,284,Serum,Direct Bilirubin,µmol/L,3.16978772090776,0,5.1,5
01-001,1,Site 01,2015-05-21,Y,Visit 5,5,2016-02-28,284,Serum,IgE,mg/L,0.338095648167025,0.1,0.4,5
01-001,1,Site 01,2015-05-21,Y,Visit 5,5,2016-02-28,284,Serum,Magnesium,mmol/L,,0.62,0.99,5
01-001,1,Site 01,2015-05-21,Y,Visit 5,5,2016-02-28,284,Serum,Potassium,mmol/L,,3.5,5,5
01-001,1,Site 01,2015-05-21,Y,Visit 5,5,2016-02-28,284,Serum,Sodium,mmol/L,139.064678138318,136,145,5
01-001,1,Site 01,2015-05-21,Y,Visit 5,5,2016-02-28,284,Serum,Total Bilirubin,µmol/L,28.6434683510413,5.1,20.5,5
01-001,1,Site 01,2015-05-21,Y,Visit 5,5,2016-02-28,284,Vital Signs,Diastolic Blood Pressure,mmHg,69.3887466593692,60,80,5
01-001,1,Site 01,2015-05-21,Y,Visit 5,5,2016-02-28,284,Vital Signs,Heart Rate,beats/minute,79.6812724160716,50,80,5
01-001,1,Site 01,2015-05-21,Y,Visit 5,5,2016-02-28,284,Vital Signs,Respiratory Rate,breaths/minute,19.252196751089,16,20,5
01-001,1,Site 01,2015-05-21,Y,Visit 5,5,2016-02-28,284,Vital Signs,Systolic Blood Pressure,mmHg,113.471606409852,90,120,5
01-001,1,Site 01,2015-05-21,Y,Visit 5,5,2016-02-28,284,Vital Signs,Temperature,°C,36.6681106917233,36.6,37,5
01-001,1,Site 01,2015-05-21,Y,Visit 6,6,2016-04-20,336,Blood,Platelet count,x 109/L,303.03852367261,150,350,6
01-001,1,Site 01,2015-05-21,Y,Visit 6,6,2016-04-20,336,Blood,RBC count,x 1012 cells/L,,4.2,5.9,6
01-001,1,Site 01,2015-05-21,Y,Visit 6,6,2016-04-20,336,Blood,WBC count,x 109 cells/L,,4.5,11,6
01-001,1,Site 01,2015-05-21,Y,Visit 6,6,2016-04-20,336,Serum,Albumin,g/L,30.4904182136382,35,55,6
01-001,1,Site 01,2015-05-21,Y,Visit 6,6,2016-04-20,336,Serum,Alkaline phosphatase (ALP),µkat/L,1.29740444342686,0.5,1.5,6
01-001,1,Site 01,2015-05-21,Y,Visit 6,6,2016-04-20,336,Serum,"Aminotransferase, alanine (ALT)",pkat/L,,0,0.58,6
01-001,1,Site 01,2015-05-21,Y,Visit 6,6,2016-04-20,336,Serum,"Aminotransferase, aspartate (AST)",pkat/L,0.439752284109201,0,0.58,6
01-001,1,Site 01,2015-05-21,Y,Visit 6,6,2016-04-20,336,Serum,Calcium,mmol/L,,2.2,2.6,6
01-001,1,Site 01,2015-05-21,Y,Visit 6,6,2016-04-20,336,Serum,Chloride,mmol/L,103.257515681584,98,106,6
01-001,1,Site 01,2015-05-21,Y,Visit 6,6,2016-04-20,336,Serum,Creatinine,µmol/L,58.2709758972863,61.9,115,6
01-001,1,Site 01,2015-05-21,Y,Visit 6,6,2016-04-20,336,Serum,Direct Bilirubin,µmol/L,0,0,5.1,6
01-001,1,Site 01,2015-05-21,Y,Visit 6,6,2016-04-20,336,Serum,IgE,mg/L,0.0956289987752529,0.1,0.4,6
01-001,1,Site 01,2015-05-21,Y,Visit 6,6,2016-04-20,336,Serum,Magnesium,mmol/L,,0.62,0.99,6
01-001,1,Site 01,2015-05-21,Y,Visit 6,6,2016-04-20,336,Serum,Potassium,mmol/L,5.077054587426,3.5,5,6
01-001,1,Site 01,2015-05-21,Y,Visit 6,6,2016-04-20,336,Serum,Sodium,mmol/L,142.14150799043,136,145,6
01-001,1,Site 01,2015-05-21,Y,Visit 6,6,2016-04-20,336,Serum,Total Bilirubin,µmol/L,17.9652781455167,5.1,20.5,6
01-001,1,Site 01,2015-05-21,Y,Visit 6,6,2016-04-20,336,Vital Signs,Diastolic Blood Pressure,mmHg,84.3323498593591,60,80,6
01-001,1,Site 01,2015-05-21,Y,Visit 6,6,2016-04-20,336,Vital Signs,Heart Rate,beats/minute,70.6216276396264,50,80,6
01-001,1,Site 01,2015-05-21,Y,Visit 6,6,2016-04-20,336,Vital Signs,Respiratory Rate,breaths/minute,16.0923807829189,16,20,6
01-001,1,Site 01,2015-05-21,Y,Visit 6,6,2016-04-20,336,Vital Signs,Systolic Blood Pressure,mmHg,108.230781054268,90,120,6
01-001,1,Site 01,2015-05-21,Y,Visit 6,6,2016-04-20,336,Vital Signs,Temperature,°C,36.7887893923423,36.6,37,6
01-001,1,Site 01,2015-05-21,Y,End of Study,7,2016-05-09,355,Blood,Platelet count,x 109/L,198.819684812459,150,350,7
01-001,1,Site 01,2015-05-21,Y,End of Study,7,2016-05-09,355,Blood,RBC count,x 1012 cells/L,4.75414340755143,4.2,5.9,7
01-001,1,Site 01,2015-05-21,Y,End of Study,7,2016-05-09,355,Blood,WBC count,x 109 cells/L,12.5671744744081,4.5,11,7
01-001,1,Site 01,2015-05-21,Y,End of Study,7,2016-05-09,355,Serum,Albumin,g/L,42.9436932590303,35,55,7
01-001,1,Site 01,2015-05-21,Y,End of Study,7,2016-05-09,355,Serum,Alkaline phosphatase (ALP),µkat/L,0.85585431420007,0.5,1.5,7
01-001,1,Site 01,2015-05-21,Y,End of Study,7,2016-05-09,355,Serum,"Aminotransferase, alanine (ALT)",pkat/L,,0,0.58,7
01-001,1,Site 01,2015-05-21,Y,End of Study,7,2016-05-09,355,Serum,"Aminotransferase, aspartate (AST)",pkat/L,0.549106276745448,0,0.58,7
01-001,1,Site 01,2015-05-21,Y,End of Study,7,2016-05-09,355,Serum,Calcium,mmol/L,2.34241142800136,2.2,2.6,7
01-001,1,Site 01,2015-05-21,Y,End of Study,7,2016-05-09,355,Serum,Chloride,mmol/L,,98,106,7
01-001,1,Site 01,2015-05-21,Y,End of Study,7,2016-05-09,355,Serum,Creatinine,µmol/L,123.041971828692,61.9,115,7
01-001,1,Site 01,2015-05-21,Y,End of Study,7,2016-05-09,355,Serum,Direct Bilirubin,µmol/L,,0,5.1,7
01-001,1,Site 01,2015-05-21,Y,End of Study,7,2016-05-09,355,Serum,IgE,mg/L,0.182903226687268,0.1,0.4,7
01-001,1,Site 01,2015-05-21,Y,End of Study,7,2016-05-09,355,Serum,Magnesium,mmol/L,0.843764090612162,0.62,0.99,7
01-001,1,Site 01,2015-05-21,Y,End of Study,7,2016-05-09,355,Serum,Potassium,mmol/L,3.57078348460485,3.5,5,7
01-001,1,Site 01,2015-05-21,Y,End of Study,7,2016-05-09,355,Serum,Sodium,mmol/L,134.579467261,136,145,7
01-001,1,Site 01,2015-05-21,Y,End of Study,7,2016-05-09,355,Serum,Total Bilirubin,µmol/L,,5.1,20.5,7
01-001,1,Site 01,2015-05-21,Y,End of Study,7,2016-05-09,355,Vital Signs,Diastolic Blood Pressure,mmHg,66.0526405581847,60,80,7
01-001,1,Site 01,2015-05-21,Y,End of Study,7,2016-05-09,355,Vital Signs,Heart Rate,beats/minute,50.9095322418809,50,80,7
01-001,1,Site 01,2015-05-21,Y,End of Study,7,2016-05-09,355,Vital Signs,Respiratory Rate,breaths/minute,18.4397444597733,16,20,7
01-001,1,Site 01,2015-05-21,Y,End of Study,7,2016-05-09,355,Vital Signs,Systolic Blood Pressure,mmHg,125.678868871029,90,120,7
01-001,1,Site 01,2015-05-21,Y,End of Study,7,2016-05-09,355,Vital Signs,Temperature,°C,36.9109162121549,36.6,37,7
01-002,1,Site 01,2015-05-30,Y,Screening,0,2015-05-30,1,Blood,Platelet count,x 109/L,203.216996149477,150,350,0
01-002,1,Site 01,2015-05-30,Y,Screening,0,2015-05-30,1,Blood,RBC count,x 1012 cells/L,4.59352235232271,4.2,5.9,0
01-002,1,Site 01,2015-05-30,Y,Screening,0,2015-05-30,1,Blood,WBC count,x 109 cells/L,4.11268990111011,4.5,11,0
01-002,1,Site 01,2015-05-30,Y,Screening,0,2015-05-30,1,Serum,Albumin,g/L,35.9123870157723,35,55,0
01-002,1,Site 01,2015-05-30,Y,Screening,0,2015-05-30,1,Serum,Alkaline phosphatase (ALP),µkat/L,,0.5,1.5,0
01-002,1,Site 01,2015-05-30,Y,Screening,0,2015-05-30,1,Serum,"Aminotransferase, alanine (ALT)",pkat/L,0.2308989577144,0,0.58,0
01-002,1,Site 01,2015-05-30,Y,Screening,0,2015-05-30,1,Serum,"Aminotransferase, aspartate (AST)",pkat/L,0,0,0.58,0
01-002,1,Site 01,2015-05-30,Y,Screening,0,2015-05-30,1,Serum,Calcium,mmol/L,2.22115868407144,2.2,2.6,0
01-002,1,Site 01,2015-05-30,Y,Screening,0,2015-05-30,1,Serum,Chloride,mmol/L,,98,106,0
01-002,1,Site 01,2015-05-30,Y,Screening,0,2015-05-30,1,Serum,Creatinine,µmol/L,62.3520944744999,61.9,115,0
01-002,1,Site 01,2015-05-30,Y,Screening,0,2015-05-30,1,Serum,Direct Bilirubin,µmol/L,1.1916257550896,0,5.1,0
01-002,1,Site 01,2015-05-30,Y,Screening,0,2015-05-30,1,Serum,IgE,mg/L,0.27329416172081,0.1,0.4,0
01-002,1,Site 01,2015-05-30,Y,Screening,0,2015-05-30,1,Serum,Magnesium,mmol/L,0.479238168294069,0.62,0.99,0
01-002,1,Site 01,2015-05-30,Y,Screening,0,2015-05-30,1,Serum,Potassium,mmol/L,3.86861349725075,3.5,5,0
01-002,1,Site 01,2015-05-30,Y,Screening,0,2015-05-30,1,Serum,Sodium,mmol/L,149.545060510219,136,145,0
01-002,1,Site 01,2015-05-30,Y,Screening,0,2015-05-30,1,Serum,Total Bilirubin,µmol/L,29.5090659006079,5.1,20.5,0
01-002,1,Site 01,2015-05-30,Y,Screening,0,2015-05-30,1,Vital Signs,Diastolic Blood Pressure,mmHg,65.9352865412018,60,80,0
01-002,1,Site 01,2015-05-30,Y,Screening,0,2015-05-30,1,Vital Signs,Heart Rate,beats/minute,44.6658207446181,50,80,0
01-002,1,Site 01,2015-05-30,Y,Screening,0,2015-05-30,1,Vital Signs,Respiratory Rate,breaths/minute,19.5728713852837,16,20,0
01-002,1,Site 01,2015-05-30,Y,Screening,0,2015-05-30,1,Vital Signs,Systolic Blood Pressure,mmHg,,90,120,0
01-002,1,Site 01,2015-05-30,Y,Screening,0,2015-05-30,1,Vital Signs,Temperature,°C,36.8150150923473,36.6,37,0
01-002,1,Site 01,2015-05-30,Y,Visit 1,1,2015-07-29,61,Blood,Platelet count,x 109/L,463.243139180733,150,350,1
01-002,1,Site 01,2015-05-30,Y,Visit 1,1,2015-07-29,61,Blood,RBC count,x 1012 cells/L,6.23010335043089,4.2,5.9,1
01-002,1,Site 01,2015-05-30,Y,Visit 1,1,2015-07-29,61,Blood,WBC count,x 109 cells/L,2.62697864606129,4.5,11,1
01-002,1,Site 01,2015-05-30,Y,Visit 1,1,2015-07-29,61,Serum,Albumin,g/L,59.2336415220535,35,55,1
01-002,1,Site 01,2015-05-30,Y,Visit 1,1,2015-07-29,61,Serum,Alkaline phosphatase (ALP),µkat/L,0.683324275546981,0.5,1.5,1
01-002,1,Site 01,2015-05-30,Y,Visit 1,1,2015-07-29,61,Serum,"Aminotransferase, alanine (ALT)",pkat/L,0.615933487430712,0,0.58,1
01-002,1,Site 01,2015-05-30,Y,Visit 1,1,2015-07-29,61,Serum,"Aminotransferase, aspartate (AST)",pkat/L,0.376151129378731,0,0.58,1
01-002,1,Site 01,2015-05-30,Y,Visit 1,1,2015-07-29,61,Serum,Calcium,mmol/L,2.28071994611498,2.2,2.6,1
01-002,1,Site 01,2015-05-30,Y,Visit 1,1,2015-07-29,61,Serum,Chloride,mmol/L,,98,106,1
01-002,1,Site 01,2015-05-30,Y,Visit 1,1,2015-07-29,61,Serum,Creatinine,µmol/L,122.149152234623,61.9,115,1
01-002,1,Site 01,2015-05-30,Y,Visit 1,1,2015-07-29,61,Serum,Direct Bilirubin,µmol/L,3.01321786346743,0,5.1,1
01-002,1,Site 01,2015-05-30,Y,Visit 1,1,2015-07-29,61,Serum,IgE,mg/L,0.28474560397982,0.1,0.4,1
01-002,1,Site 01,2015-05-30,Y,Visit 1,1,2015-07-29,61,Serum,Magnesium,mmol/L,0.690481055236582,0.62,0.99,1
01-002,1,Site 01,2015-05-30,Y,Visit 1,1,2015-07-29,61,Serum,Potassium,mmol/L,4.68120215232467,3.5,5,1
01-002,1,Site 01,2015-05-30,Y,Visit 1,1,2015-07-29,61,Serum,Sodium,mmol/L,138.870342350005,136,145,1
01-002,1,Site 01,2015-05-30,Y,Visit 1,1,2015-07-29,61,Serum,Total Bilirubin,µmol/L,18.4440590026213,5.1,20.5,1
01-002,1,Site 01,2015-05-30,Y,Visit 1,1,2015-07-29,61,Vital Signs,Diastolic Blood Pressure,mmHg,83.0602454337036,60,80,1
01-002,1,Site 01,2015-05-30,Y,Visit 1,1,2015-07-29,61,Vital Signs,Heart Rate,beats/minute,43.2799768722904,50,80,1
01-002,1,Site 01,2015-05-30,Y,Visit 1,1,2015-07-29,61,Vital Signs,Respiratory Rate,breaths/minute,14.4981692677734,16,20,1
01-002,1,Site 01,2015-05-30,Y,Visit 1,1,2015-07-29,61,Vital Signs,Systolic Blood Pressure,mmHg,101.371529770937,90,120,1
01-002,1,Site 01,2015-05-30,Y,Visit 1,1,2015-07-29,61,Vital Signs,Temperature,°C,36.3969184652103,36.6,37,1
01-002,1,Site 01,2015-05-30,Y,Unscheduled 1.1,1.1,2015-08-06,69,Blood,Platelet count,x 109/L,131.317651074618,150,350,1.1
01-002,1,Site 01,2015-05-30,Y,Unscheduled 1.1,1.1,2015-08-06,69,Blood,RBC count,x 1012 cells/L,4.8781942421691,4.2,5.9,1.1
01-002,1,Site 01,2015-05-30,Y,Unscheduled 1.1,1.1,2015-08-06,69,Blood,WBC count,x 109 cells/L,8.67922302951748,4.5,11,1.1
01-002,1,Site 01,2015-05-30,Y,Unscheduled 1.1,1.1,2015-08-06,69,Serum,Albumin,g/L,32.182723900946,35,55,1.1
01-002,1,Site 01,2015-05-30,Y,Unscheduled 1.1,1.1,2015-08-06,69,Serum,Alkaline phosphatase (ALP),µkat/L,0.301711246670373,0.5,1.5,1.1
01-002,1,Site 01,2015-05-30,Y,Unscheduled 1.1,1.1,2015-08-06,69,Serum,"Aminotransferase, alanine (ALT)",pkat/L,0.0410093243679377,0,0.58,1.1
01-002,1,Site 01,2015-05-30,Y,Unscheduled 1.1,1.1,2015-08-06,69,Serum,"Aminotransferase, aspartate (AST)",pkat/L,0.173110072533774,0,0.58,1.1
01-002,1,Site 01,2015-05-30,Y,Unscheduled 1.1,1.1,2015-08-06,69,Serum,Calcium,mmol/L,2.60448522199657,2.2,2.6,1.1
01-002,1,Site 01,2015-05-30,Y,Unscheduled 1.1,1.1,2015-08-06,69,Serum,Chloride,mmol/L,98.7081266055703,98,106,1.1
01-002,1,Site 01,2015-05-30,Y,Unscheduled 1.1,1.1,2015-08-06,69,Serum,Creatinine,µmol/L,47.2938570501292,61.9,115,1.1
01-002,1,Site 01,2015-05-30,Y,Unscheduled 1.1,1.1,2015-08-06,69,Serum,Direct Bilirubin,µmol/L,0.514301627396305,0,5.1,1.1
01-002,1,Site 01,2015-05-30,Y,Unscheduled 1.1,1.1,2015-08-06,69,Serum,IgE,mg/L,0.27052608467864,0.1,0.4,1.1
01-002,1,Site 01,2015-05-30,Y,Unscheduled 1.1,1.1,2015-08-06,69,Serum,Magnesium,mmol/L,0.628459221359288,0.62,0.99,1.1
01-002,1,Site 01,2015-05-30,Y,Unscheduled 1.1,1.1,2015-08-06,69,Serum,Potassium,mmol/L,4.7188451441438,3.5,5,1.1
01-002,1,Site 01,2015-05-30,Y,Unscheduled 1.1,1.1,2015-08-06,69,Serum,Sodium,mmol/L,137.571906879448,136,145,1.1
01-002,1,Site 01,2015-05-30,Y,Unscheduled 1.1,1.1,2015-08-06,69,Serum,Total Bilirubin,µmol/L,2.25858941294149,5.1,20.5,1.1
01-002,1,Site 01,2015-05-30,Y,Unscheduled 1.1,1.1,2015-08-06,69,Vital Signs,Diastolic Blood Pressure,mmHg,62.3843634283357,60,80,1.1
01-002,1,Site 01,2015-05-30,Y,Unscheduled 1.1,1.1,2015-08-06,69,Vital Signs,Heart Rate,beats/minute,65.2188528165698,50,80,1.1
01-002,1,Site 01,2015-05-30,Y,Unscheduled 1.1,1.1,2015-08-06,69,Vital Signs,Respiratory Rate,breaths/minute,17.6459576574879,16,20,1.1
01-002,1,Site 01,2015-05-30,Y,Unscheduled 1.1,1.1,2015-08-06,69,Vital Signs,Systolic Blood Pressure,mmHg,106.782130424396,90,120,1.1
01-002,1,Site 01,2015-05-30,Y,Unscheduled 1.1,1.1,2015-08-06,69,Vital Signs,Temperature,°C,37.0588454724314,36.6,37,1.1
01-002,1,Site 01,2015-05-30,Y,Visit 2,2,2015-09-17,111,Blood,Platelet count,x 109/L,215.809935074148,150,350,2
01-002,1,Site 01,2015-05-30,Y,Visit 2,2,2015-09-17,111,Blood,RBC count,x 1012 cells/L,5.71675318769101,4.2,5.9,2
01-002,1,Site 01,2015-05-30,Y,Visit 2,2,2015-09-17,111,Blood,WBC count,x 109 cells/L,,4.5,11,2
01-002,1,Site 01,2015-05-30,Y,Visit 2,2,2015-09-17,111,Serum,Albumin,g/L,51.288330741507,35,55,2
01-002,1,Site 01,2015-05-30,Y,Visit 2,2,2015-09-17,111,Serum,Alkaline phosphatase (ALP),µkat/L,1.93818836375163,0.5,1.5,2
01-002,1,Site 01,2015-05-30,Y,Visit 2,2,2015-09-17,111,Serum,"Aminotransferase, alanine (ALT)",pkat/L,0.288614746258522,0,0.58,2
01-002,1,Site 01,2015-05-30,Y,Visit 2,2,2015-09-17,111,Serum,"Aminotransferase, aspartate (AST)",pkat/L,0.44490206037002,0,0.58,2
01-002,1,Site 01,2015-05-30,Y,Visit 2,2,2015-09-17,111,Serum,Calcium,mmol/L,2.39555745630877,2.2,2.6,2
01-002,1,Site 01,2015-05-30,Y,Visit 2,2,2015-09-17,111,Serum,Chloride,mmol/L,97.3303330110206,98,106,2
01-002,1,Site 01,2015-05-30,Y,Visit 2,2,2015-09-17,111,Serum,Creatinine,µmol/L,68.5537474972545,61.9,115,2
01-002,1,Site 01,2015-05-30,Y,Visit 2,2,2015-09-17,111,Serum,Direct Bilirubin,µmol/L,4.23132998455481,0,5.1,2
01-002,1,Site 01,2015-05-30,Y,Visit 2,2,2015-09-17,111,Serum,IgE,mg/L,0.308732407624202,0.1,0.4,2
01-002,1,Site 01,2015-05-30,Y,Visit 2,2,2015-09-17,111,Serum,Magnesium,mmol/L,0.898540764131125,0.62,0.99,2
01-002,1,Site 01,2015-05-30,Y,Visit 2,2,2015-09-17,111,Serum,Potassium,mmol/L,5.26015011997845,3.5,5,2
01-002,1,Site 01,2015-05-30,Y,Visit 2,2,2015-09-17,111,Serum,Sodium,mmol/L,139.293475687638,136,145,2
01-002,1,Site 01,2015-05-30,Y,Visit 2,2,2015-09-17,111,Serum,Total Bilirubin,µmol/L,7.60386737165412,5.1,20.5,2
01-002,1,Site 01,2015-05-30,Y,Visit 2,2,2015-09-17,111,Vital Signs,Diastolic Blood Pressure,mmHg,,60,80,2
01-002,1,Site 01,2015-05-30,Y,Visit 2,2,2015-09-17,111,Vital Signs,Heart Rate,beats/minute,82.8823203845271,50,80,2
01-002,1,Site 01,2015-05-30,Y,Visit 2,2,2015-09-17,111,Vital Signs,Respiratory Rate,breaths/minute,18.573126358674,16,20,2
01-002,1,Site 01,2015-05-30,Y,Visit 2,2,2015-09-17,111,Vital Signs,Systolic Blood Pressure,mmHg,65.6589942764382,90,120,2
01-002,1,Site 01,2015-05-30,Y,Visit 2,2,2015-09-17,111,Vital Signs,Temperature,°C,36.8956165942728,36.6,37,2
01-002,1,Site 01,2015-05-30,Y,Visit 3,3,2015-11-15,170,Blood,Platelet count,x 109/L,241.041343131549,150,350,3
01-002,1,Site 01,2015-05-30,Y,Visit 3,3,2015-11-15,170,Blood,RBC count,x 1012 cells/L,4.61716081717901,4.2,5.9,3
01-002,1,Site 01,2015-05-30,Y,Visit 3,3,2015-11-15,170,Blood,WBC count,x 109 cells/L,9.90369352430777,4.5,11,3
01-002,1,Site 01,2015-05-30,Y,Visit 3,3,2015-11-15,170,Serum,Albumin,g/L,33.484548003058,35,55,3
01-002,1,Site 01,2015-05-30,Y,Visit 3,3,2015-11-15,170,Serum,Alkaline phosphatase (ALP),µkat/L,1.3057936678018,0.5,1.5,3
01-002,1,Site 01,2015-05-30,Y,Visit 3,3,2015-11-15,170,Serum,"Aminotransferase, alanine (ALT)",pkat/L,0.163880159779162,0,0.58,3
01-002,1,Site 01,2015-05-30,Y,Visit 3,3,2015-11-15,170,Serum,"Aminotransferase, aspartate (AST)",pkat/L,0.665111793018047,0,0.58,3
01-002,1,Site 01,2015-05-30,Y,Visit 3,3,2015-11-15,170,Serum,Calcium,mmol/L,2.50848163435123,2.2,2.6,3
01-002,1,Site 01,2015-05-30,Y,Visit 3,3,2015-11-15,170,Serum,Chloride,mmol/L,98.837226992523,98,106,3
01-002,1,Site 01,2015-05-30,Y,Visit 3,3,2015-11-15,170,Serum,Creatinine,µmol/L,50.3842169959582,61.9,115,3
01-002,1,Site 01,2015-05-30,Y,Visit 3,3,2015-11-15,170,Serum,Direct Bilirubin,µmol/L,4.54244287125978,0,5.1,3
01-002,1,Site 01,2015-05-30,Y,Visit 3,3,2015-11-15,170,Serum,IgE,mg/L,0.182069914982695,0.1,0.4,3
01-002,1,Site 01,2015-05-30,Y,Visit 3,3,2015-11-15,170,Serum,Magnesium,mmol/L,0.610819066624471,0.62,0.99,3
01-002,1,Site 01,2015-05-30,Y,Visit 3,3,2015-11-15,170,Serum,Potassium,mmol/L,3.10483320546895,3.5,5,3
01-002,1,Site 01,2015-05-30,Y,Visit 3,3,2015-11-15,170,Serum,Sodium,mmol/L,,136,145,3
01-002,1,Site 01,2015-05-30,Y,Visit 3,3,2015-11-15,170,Serum,Total Bilirubin,µmol/L,8.8313994329137,5.1,20.5,3
01-002,1,Site 01,2015-05-30,Y,Visit 3,3,2015-11-15,170,Vital Signs,Diastolic Blood Pressure,mmHg,,60,80,3
01-002,1,Site 01,2015-05-30,Y,Visit 3,3,2015-11-15,170,Vital Signs,Heart Rate,beats/minute,,50,80,3
01-002,1,Site 01,2015-05-30,Y,Visit 3,3,2015-11-15,170,Vital Signs,Respiratory Rate,breaths/minute,18.8915688973118,16,20,3
01-002,1,Site 01,2015-05-30,Y,Visit 3,3,2015-11-15,170,Vital Signs,Systolic Blood Pressure,mmHg,108.425236750854,90,120,3
01-002,1,Site 01,2015-05-30,Y,Visit 3,3,2015-11-15,170,Vital Signs,Temperature,°C,36.5572016807321,36.6,37,3
01-002,1,Site 01,2015-05-30,Y,Visit 4,4,2016-01-06,222,Blood,Platelet count,x 109/L,319.600361413117,150,350,4
01-002,1,Site 01,2015-05-30,Y,Visit 4,4,2016-01-06,222,Blood,RBC count,x 1012 cells/L,4.78392929562098,4.2,5.9,4
01-002,1,Site 01,2015-05-30,Y,Visit 4,4,2016-01-06,222,Blood,WBC count,x 109 cells/L,0,4.5,11,4
01-002,1,Site 01,2015-05-30,Y,Visit 4,4,2016-01-06,222,Serum,Albumin,g/L,59.445986202009,35,55,4
01-002,1,Site 01,2015-05-30,Y,Visit 4,4,2016-01-06,222,Serum,Alkaline phosphatase (ALP),µkat/L,1.43347279955199,0.5,1.5,4
01-002,1,Site 01,2015-05-30,Y,Visit 4,4,2016-01-06,222,Serum,"Aminotransferase, alanine (ALT)",pkat/L,0,0,0.58,4
01-002,1,Site 01,2015-05-30,Y,Visit 4,4,2016-01-06,222,Serum,"Aminotransferase, aspartate (AST)",pkat/L,0.173922571457441,0,0.58,4
01-002,1,Site 01,2015-05-30,Y,Visit 4,4,2016-01-06,222,Serum,Calcium,mmol/L,1.99085442099071,2.2,2.6,4
01-002,1,Site 01,2015-05-30,Y,Visit 4,4,2016-01-06,222,Serum,Chloride,mmol/L,100.567085485914,98,106,4
01-002,1,Site 01,2015-05-30,Y,Visit 4,4,2016-01-06,222,Serum,Creatinine,µmol/L,89.6771564218253,61.9,115,4
01-002,1,Site 01,2015-05-30,Y,Visit 4,4,2016-01-06,222,Serum,Direct Bilirubin,µmol/L,3.02274824291664,0,5.1,4
01-002,1,Site 01,2015-05-30,Y,Visit 4,4,2016-01-06,222,Serum,IgE,mg/L,0.121838117067559,0.1,0.4,4
01-002,1,Site 01,2015-05-30,Y,Visit 4,4,2016-01-06,222,Serum,Magnesium,mmol/L,1.21776613696695,0.62,0.99,4
01-002,1,Site 01,2015-05-30,Y,Visit 4,4,2016-01-06,222,Serum,Potassium,mmol/L,3.17740091725431,3.5,5,4
01-002,1,Site 01,2015-05-30,Y,Visit 4,4,2016-01-06,222,Serum,Sodium,mmol/L,136.786326012818,136,145,4
01-002,1,Site 01,2015-05-30,Y,Visit 4,4,2016-01-06,222,Serum,Total Bilirubin,µmol/L,,5.1,20.5,4
01-002,1,Site 01,2015-05-30,Y,Visit 4,4,2016-01-06,222,Vital Signs,Diastolic Blood Pressure,mmHg,77.4940484619128,60,80,4
01-002,1,Site 01,2015-05-30,Y,Visit 4,4,2016-01-06,222,Vital Signs,Heart Rate,beats/minute,64.5359790565978,50,80,4
01-002,1,Site 01,2015-05-30,Y,Visit 4,4,2016-01-06,222,Vital Signs,Respiratory Rate,breaths/minute,19.5823522737415,16,20,4
01-002,1,Site 01,2015-05-30,Y,Visit 4,4,2016-01-06,222,Vital Signs,Systolic Blood Pressure,mmHg,,90,120,4
01-002,1,Site 01,2015-05-30,Y,Visit 4,4,2016-01-06,222,Vital Signs,Temperature,°C,36.8592835700001,36.6,37,4
01-002,1,Site 01,2015-05-30,Y,Visit 5,5,2016-03-05,281,Blood,Platelet count,x 109/L,354.247820157918,150,350,5
01-002,1,Site 01,2015-05-30,Y,Visit 5,5,2016-03-05,281,Blood,RBC count,x 1012 cells/L,3.27582360979421,4.2,5.9,5
01-002,1,Site 01,2015-05-30,Y,Visit 5,5,2016-03-05,281,Blood,WBC count,x 109 cells/L,,4.5,11,5
01-002,1,Site 01,2015-05-30,Y,Visit 5,5,2016-03-05,281,Serum,Albumin,g/L,50.3015988719217,35,55,5
01-002,1,Site 01,2015-05-30,Y,Visit 5,5,2016-03-05,281,Serum,Alkaline phosphatase (ALP),µkat/L,0.971159800063998,0.5,1.5,5
01-002,1,Site 01,2015-05-30,Y,Visit 5,5,2016-03-05,281,Serum,"Aminotransferase, alanine (ALT)",pkat/L,0.509856817463958,0,0.58,5
01-002,1,Site 01,2015-05-30,Y,Visit 5,5,2016-03-05,281,Serum,"Aminotransferase, aspartate (AST)",pkat/L,0,0,0.58,5
01-002,1,Site 01,2015-05-30,Y,Visit 5,5,2016-03-05,281,Serum,Calcium,mmol/L,2.49376661809342,2.2,2.6,5
01-002,1,Site 01,2015-05-30,Y,Visit 5,5,2016-03-05,281,Serum,Chloride,mmol/L,105.967905323298,98,106,5
01-002,1,Site 01,2015-05-30,Y,Visit 5,5,2016-03-05,281,Serum,Creatinine,µmol/L,95.4958200363633,61.9,115,5
01-002,1,Site 01,2015-05-30,Y,Visit 5,5,2016-03-05,281,Serum,Direct Bilirubin,µmol/L,4.73637044338579,0,5.1,5
01-002,1,Site 01,2015-05-30,Y,Visit 5,5,2016-03-05,281,Serum,IgE,mg/L,0.298985538635615,0.1,0.4,5
01-002,1,Site 01,2015-05-30,Y,Visit 5,5,2016-03-05,281,Serum,Magnesium,mmol/L,0.411084480212765,0.62,0.99,5
01-002,1,Site 01,2015-05-30,Y,Visit 5,5,2016-03-05,281,Serum,Potassium,mmol/L,,3.5,5,5
01-002,1,Site 01,2015-05-30,Y,Visit 5,5,2016-03-05,281,Serum,Sodium,mmol/L,147.515669434898,136,145,5
01-002,1,Site 01,2015-05-30,Y,Visit 5,5,2016-03-05,281,Serum,Total Bilirubin,µmol/L,31.1150716495391,5.1,20.5,5
01-002,1,Site 01,2015-05-30,Y,Visit 5,5,2016-03-05,281,Vital Signs,Diastolic Blood Pressure,mmHg,69.5963871454794,60,80,5
01-002,1,Site 01,2015-05-30,Y,Visit 5,5,2016-03-05,281,Vital Signs,Heart Rate,beats/minute,67.5434295599935,50,80,5
01-002,1,Site 01,2015-05-30,Y,Visit 5,5,2016-03-05,281,Vital Signs,Respiratory Rate,breaths/minute,15.04844150142,16,20,5
01-002,1,Site 01,2015-05-30,Y,Visit 5,5,2016-03-05,281,Vital Signs,Systolic Blood Pressure,mmHg,109.491050934977,90,120,5
01-002,1,Site 01,2015-05-30,Y,Visit 5,5,2016-03-05,281,Vital Signs,Temperature,°C,36.9266205758052,36.6,37,5
01-002,1,Site 01,2015-05-30,Y,Visit 6,6,2016-04-26,333,Blood,Platelet count,x 109/L,324.122833499555,150,350,6
01-002,1,Site 01,2015-05-30,Y,Visit 6,6,2016-04-26,333,Blood,RBC count,x 1012 cells/L,,4.2,5.9,6
01-002,1,Site 01,2015-05-30,Y,Visit 6,6,2016-04-26,333,Blood,WBC count,x 109 cells/L,2.53593810231877,4.5,11,6
01-002,1,Site 01,2015-05-30,Y,Visit 6,6,2016-04-26,333,Serum,Albumin,g/L,52.9620969287605,35,55,6
01-002,1,Site 01,2015-05-30,Y,Visit 6,6,2016-04-26,333,Serum,Alkaline phosphatase (ALP),µkat/L,0.218010576469154,0.5,1.5,6
01-002,1,Site 01,2015-05-30,Y,Visit 6,6,2016-04-26,333,Serum,"Aminotransferase, alanine (ALT)",pkat/L,,0,0.58,6
01-002,1,Site 01,2015-05-30,Y,Visit 6,6,2016-04-26,333,Serum,"Aminotransferase, aspartate (AST)",pkat/L,0.201892387574307,0,0.58,6
01-002,1,Site 01,2015-05-30,Y,Visit 6,6,2016-04-26,333,Serum,Calcium,mmol/L,,2.2,2.6,6
01-002,1,Site 01,2015-05-30,Y,Visit 6,6,2016-04-26,333,Serum,Chloride,mmol/L,105.431613661498,98,106,6
01-002,1,Site 01,2015-05-30,Y,Visit 6,6,2016-04-26,333,Serum,Creatinine,µmol/L,78.2830088449328,61.9,115,6
01-002,1,Site 01,2015-05-30,Y,Visit 6,6,2016-04-26,333,Serum,Direct Bilirubin,µmol/L,0,0,5.1,6
01-002,1,Site 01,2015-05-30,Y,Visit 6,6,2016-04-26,333,Serum,IgE,mg/L,0.347912271386179,0.1,0.4,6
01-002,1,Site 01,2015-05-30,Y,Visit 6,6,2016-04-26,333,Serum,Magnesium,mmol/L,,0.62,0.99,6
01-002,1,Site 01,2015-05-30,Y,Visit 6,6,2016-04-26,333,Serum,Potassium,mmol/L,6.57499317102939,3.5,5,6
01-002,1,Site 01,2015-05-30,Y,Visit 6,6,2016-04-26,333,Serum,Sodium,mmol/L,128.055774000299,136,145,6
01-002,1,Site 01,2015-05-30,Y,Visit 6,6,2016-04-26,333,Serum,Total Bilirubin,µmol/L,8.73230659725205,5.1,20.5,6
01-002,1,Site 01,2015-05-30,Y,Visit 6,6,2016-04-26,333,Vital Signs,Diastolic Blood Pressure,mmHg,72.3201975010458,60,80,6
01-002,1,Site 01,2015-05-30,Y,Visit 6,6,2016-04-26,333,Vital Signs,Heart Rate,beats/minute,61.884714848784,50,80,6
01-002,1,Site 01,2015-05-30,Y,Visit 6,6,2016-04-26,333,Vital Signs,Respiratory Rate,breaths/minute,19.0810499588012,16,20,6
01-002,1,Site 01,2015-05-30,Y,Visit 6,6,2016-04-26,333,Vital Signs,Systolic Blood Pressure,mmHg,117.12164034998,90,120,6
01-002,1,Site 01,2015-05-30,Y,Visit 6,6,2016-04-26,333,Vital Signs,Temperature,°C,36.9845852235511,36.6,37,6
01-002,1,Site 01,2015-05-30,Y,Unscheduled 6.1,6.1,2016-05-04,341,Blood,Platelet count,x 109/L,198.1086092315,150,350,6.1
01-002,1,Site 01,2015-05-30,Y,Unscheduled 6.1,6.1,2016-05-04,341,Blood,RBC count,x 1012 cells/L,5.7943745623202,4.2,5.9,6.1
01-002,1,Site 01,2015-05-30,Y,Unscheduled 6.1,6.1,2016-05-04,341,Blood,WBC count,x 109 cells/L,8.51041690157831,4.5,11,6.1
01-002,1,Site 01,2015-05-30,Y,Unscheduled 6.1,6.1,2016-05-04,341,Serum,Albumin,g/L,44.1021865654291,35,55,6.1
01-002,1,Site 01,2015-05-30,Y,Unscheduled 6.1,6.1,2016-05-04,341,Serum,Alkaline phosphatase (ALP),µkat/L,1.52797973115826,0.5,1.5,6.1
01-002,1,Site 01,2015-05-30,Y,Unscheduled 6.1,6.1,2016-05-04,341,Serum,"Aminotransferase, alanine (ALT)",pkat/L,0.00387592988997904,0,0.58,6.1
01-002,1,Site 01,2015-05-30,Y,Unscheduled 6.1,6.1,2016-05-04,341,Serum,"Aminotransferase, aspartate (AST)",pkat/L,0.500303705965232,0,0.58,6.1
01-002,1,Site 01,2015-05-30,Y,Unscheduled 6.1,6.1,2016-05-04,341,Serum,Calcium,mmol/L,2.518926492415,2.2,2.6,6.1
01-002,1,Site 01,2015-05-30,Y,Unscheduled 6.1,6.1,2016-05-04,341,Serum,Chloride,mmol/L,104.931863916327,98,106,6.1
01-002,1,Site 01,2015-05-30,Y,Unscheduled 6.1,6.1,2016-05-04,341,Serum,Creatinine,µmol/L,77.1929766579195,61.9,115,6.1
01-002,1,Site 01,2015-05-30,Y,Unscheduled 6.1,6.1,2016-05-04,341,Serum,Direct Bilirubin,µmol/L,2.72925018460332,0,5.1,6.1
01-002,1,Site 01,2015-05-30,Y,Unscheduled 6.1,6.1,2016-05-04,341,Serum,IgE,mg/L,0.117412432346292,0.1,0.4,6.1
01-002,1,Site 01,2015-05-30,Y,Unscheduled 6.1,6.1,2016-05-04,341,Serum,Magnesium,mmol/L,1.04137420295043,0.62,0.99,6.1
01-002,1,Site 01,2015-05-30,Y,Unscheduled 6.1,6.1,2016-05-04,341,Serum,Potassium,mmol/L,5.00167263426782,3.5,5,6.1
01-002,1,Site 01,2015-05-30,Y,Unscheduled 6.1,6.1,2016-05-04,341,Serum,Sodium,mmol/L,140.152505599894,136,145,6.1
01-002,1,Site 01,2015-05-30,Y,Unscheduled 6.1,6.1,2016-05-04,341,Serum,Total Bilirubin,µmol/L,8.72843790799224,5.1,20.5,6.1
01-002,1,Site 01,2015-05-30,Y,Unscheduled 6.1,6.1,2016-05-04,341,Vital Signs,Diastolic Blood Pressure,mmHg,62.6422303623497,60,80,6.1
01-002,1,Site 01,2015-05-30,Y,Unscheduled 6.1,6.1,2016-05-04,341,Vital Signs,Heart Rate,beats/minute,77.3806628170022,50,80,6.1
01-002,1,Site 01,2015-05-30,Y,Unscheduled 6.1,6.1,2016-05-04,341,Vital Signs,Respiratory Rate,breaths/minute,,16,20,6.1
01-002,1,Site 01,2015-05-30,Y,Unscheduled 6.1,6.1,2016-05-04,341,Vital Signs,Systolic Blood Pressure,mmHg,105.26420550843,90,120,6.1
01-002,1,Site 01,2015-05-30,Y,Unscheduled 6.1,6.1,2016-05-04,341,Vital Signs,Temperature,°C,37.1112842905535,36.6,37,6.1
01-002,1,Site 01,2015-05-30,Y,End of Study,7,2016-05-29,366,Blood,Platelet count,x 109/L,497.888996740508,150,350,7
01-002,1,Site 01,2015-05-30,Y,End of Study,7,2016-05-29,366,Blood,RBC count,x 1012 cells/L,5.08857861683537,4.2,5.9,7
01-002,1,Site 01,2015-05-30,Y,End of Study,7,2016-05-29,366,Blood,WBC count,x 109 cells/L,0.050571407801959,4.5,11,7
01-002,1,Site 01,2015-05-30,Y,End of Study,7,2016-05-29,366,Serum,Albumin,g/L,50.0659869396745,35,55,7
01-002,1,Site 01,2015-05-30,Y,End of Study,7,2016-05-29,366,Serum,Alkaline phosphatase (ALP),µkat/L,0.561766186508411,0.5,1.5,7
01-002,1,Site 01,2015-05-30,Y,End of Study,7,2016-05-29,366,Serum,"Aminotransferase, alanine (ALT)",pkat/L,0.060595328667693,0,0.58,7
01-002,1,Site 01,2015-05-30,Y,End of Study,7,2016-05-29,366,Serum,"Aminotransferase, aspartate (AST)",pkat/L,0.010357766383084,0,0.58,7
01-002,1,Site 01,2015-05-30,Y,End of Study,7,2016-05-29,366,Serum,Calcium,mmol/L,2.27085933816959,2.2,2.6,7
01-002,1,Site 01,2015-05-30,Y,End of Study,7,2016-05-29,366,Serum,Chloride,mmol/L,,98,106,7
01-002,1,Site 01,2015-05-30,Y,End of Study,7,2016-05-29,366,Serum,Creatinine,µmol/L,52.9047646294469,61.9,115,7
01-002,1,Site 01,2015-05-30,Y,End of Study,7,2016-05-29,366,Serum,Direct Bilirubin,µmol/L,,0,5.1,7
01-002,1,Site 01,2015-05-30,Y,End of Study,7,2016-05-29,366,Serum,IgE,mg/L,0.337110825372803,0.1,0.4,7
01-002,1,Site 01,2015-05-30,Y,End of Study,7,2016-05-29,366,Serum,Magnesium,mmol/L,0.751692466131351,0.62,0.99,7
01-002,1,Site 01,2015-05-30,Y,End of Study,7,2016-05-29,366,Serum,Potassium,mmol/L,4.06687102337573,3.5,5,7
01-002,1,Site 01,2015-05-30,Y,End of Study,7,2016-05-29,366,Serum,Sodium,mmol/L,146.456017187579,136,145,7
01-002,1,Site 01,2015-05-30,Y,End of Study,7,2016-05-29,366,Serum,Total Bilirubin,µmol/L,0.0605886172231198,5.1,20.5,7
01-002,1,Site 01,2015-05-30,Y,End of Study,7,2016-05-29,366,Vital Signs,Diastolic Blood Pressure,mmHg,54.8912566197996,60,80,7
01-002,1,Site 01,2015-05-30,Y,End of Study,7,2016-05-29,366,Vital Signs,Heart Rate,beats/minute,46.8341139648569,50,80,7
01-002,1,Site 01,2015-05-30,Y,End of Study,7,2016-05-29,366,Vital Signs,Respiratory Rate,breaths/minute,21.2311908132143,16,20,7
01-002,1,Site 01,2015-05-30,Y,End of Study,7,2016-05-29,366,Vital Signs,Systolic Blood Pressure,mmHg,116.012201924906,90,120,7
01-002,1,Site 01,2015-05-30,Y,End of Study,7,2016-05-29,366,Vital Signs,Temperature,°C,36.9040139940817,36.6,37,7
01-003,1,Site 01,2015-08-14,Y,Screening,0,2015-08-14,1,Blood,Platelet count,x 109/L,223.55994732341,150,350,0
01-003,1,Site 01,2015-08-14,Y,Screening,0,2015-08-14,1,Blood,RBC count,x 1012 cells/L,4.57240783291865,4.2,5.9,0
01-003,1,Site 01,2015-08-14,Y,Screening,0,2015-08-14,1,Blood,WBC count,x 109 cells/L,7.96447272383614,4.5,11,0
01-003,1,Site 01,2015-08-14,Y,Screening,0,2015-08-14,1,Serum,Albumin,g/L,39.0709864520223,35,55,0
01-003,1,Site 01,2015-08-14,Y,Screening,0,2015-08-14,1,Serum,Alkaline phosphatase (ALP),µkat/L,,0.5,1.5,0
01-003,1,Site 01,2015-08-14,Y,Screening,0,2015-08-14,1,Serum,"Aminotransferase, alanine (ALT)",pkat/L,0,0,0.58,0
01-003,1,Site 01,2015-08-14,Y,Screening,0,2015-08-14,1,Serum,"Aminotransferase, aspartate (AST)",pkat/L,0.361388807042018,0,0.58,0
01-003,1,Site 01,2015-08-14,Y,Screening,0,2015-08-14,1,Serum,Calcium,mmol/L,2.24579933191562,2.2,2.6,0
01-003,1,Site 01,2015-08-14,Y,Screening,0,2015-08-14,1,Serum,Chloride,mmol/L,109.658042150819,98,106,0
01-003,1,Site 01,2015-08-14,Y,Screening,0,2015-08-14,1,Serum,Creatinine,µmol/L,87.9418323967715,61.9,115,0
01-003,1,Site 01,2015-08-14,Y,Screening,0,2015-08-14,1,Serum,Direct Bilirubin,µmol/L,2.72541941851861,0,5.1,0
01-003,1,Site 01,2015-08-14,Y,Screening,0,2015-08-14,1,Serum,IgE,mg/L,0.064599423507186,0.1,0.4,0
01-003,1,Site 01,2015-08-14,Y,Screening,0,2015-08-14,1,Serum,Magnesium,mmol/L,0.914394757703962,0.62,0.99,0
01-003,1,Site 01,2015-08-14,Y,Screening,0,2015-08-14,1,Serum,Potassium,mmol/L,3.48645232433414,3.5,5,0
01-003,1,Site 01,2015-08-14,Y,Screening,0,2015-08-14,1,Serum,Sodium,mmol/L,147.194440685289,136,145,0
01-003,1,Site 01,2015-08-14,Y,Screening,0,2015-08-14,1,Serum,Total Bilirubin,µmol/L,21.7206535630321,5.1,20.5,0
01-003,1,Site 01,2015-08-14,Y,Screening,0,2015-08-14,1,Vital Signs,Diastolic Blood Pressure,mmHg,79.1904867843224,60,80,0
01-003,1,Site 01,2015-08-14,Y,Screening,0,2015-08-14,1,Vital Signs,Heart Rate,beats/minute,83.7721471525341,50,80,0
01-003,1,Site 01,2015-08-14,Y,Screening,0,2015-08-14,1,Vital Signs,Respiratory Rate,breaths/minute,17.0994719390928,16,20,0
01-003,1,Site 01,2015-08-14,Y,Screening,0,2015-08-14,1,Vital Signs,Systolic Blood Pressure,mmHg,118.995848085006,90,120,0
01-003,1,Site 01,2015-08-14,Y,Screening,0,2015-08-14,1,Vital Signs,Temperature,°C,36.5073945539854,36.6,37,0
01-003,1,Site 01,2015-08-14,Y,Unscheduled 0.1,0.1,2015-08-22,9,Blood,Platelet count,x 109/L,311.007772840685,150,350,0.1
01-003,1,Site 01,2015-08-14,Y,Unscheduled 0.1,0.1,2015-08-22,9,Blood,RBC count,x 1012 cells/L,4.11359370148629,4.2,5.9,0.1
01-003,1,Site 01,2015-08-14,Y,Unscheduled 0.1,0.1,2015-08-22,9,Blood,WBC count,x 109 cells/L,2.77550360024179,4.5,11,0.1
01-003,1,Site 01,2015-08-14,Y,Unscheduled 0.1,0.1,2015-08-22,9,Serum,Albumin,g/L,55.3071695800095,35,55,0.1
01-003,1,Site 01,2015-08-14,Y,Unscheduled 0.1,0.1,2015-08-22,9,Serum,Alkaline phosphatase (ALP),µkat/L,1.50457581544233,0.5,1.5,0.1
01-003,1,Site 01,2015-08-14,Y,Unscheduled 0.1,0.1,2015-08-22,9,Serum,"Aminotransferase, alanine (ALT)",pkat/L,0.577604796378049,0,0.58,0.1
01-003,1,Site 01,2015-08-14,Y,Unscheduled 0.1,0.1,2015-08-22,9,Serum,"Aminotransferase, aspartate (AST)",pkat/L,0,0,0.58,0.1
01-003,1,Site 01,2015-08-14,Y,Unscheduled 0.1,0.1,2015-08-22,9,Serum,Calcium,mmol/L,2.47601451290191,2.2,2.6,0.1
01-003,1,Site 01,2015-08-14,Y,Unscheduled 0.1,0.1,2015-08-22,9,Serum,Chloride,mmol/L,97.0385057063593,98,106,0.1
01-003,1,Site 01,2015-08-14,Y,Unscheduled 0.1,0.1,2015-08-22,9,Serum,Creatinine,µmol/L,10.9636002538488,61.9,115,0.1
01-003,1,Site 01,2015-08-14,Y,Unscheduled 0.1,0.1,2015-08-22,9,Serum,Direct Bilirubin,µmol/L,0.580236764147341,0,5.1,0.1
01-003,1,Site 01,2015-08-14,Y,Unscheduled 0.1,0.1,2015-08-22,9,Serum,IgE,mg/L,0.385207650629574,0.1,0.4,0.1
01-003,1,Site 01,2015-08-14,Y,Unscheduled 0.1,0.1,2015-08-22,9,Serum,Magnesium,mmol/L,0.902716574431194,0.62,0.99,0.1
01-003,1,Site 01,2015-08-14,Y,Unscheduled 0.1,0.1,2015-08-22,9,Serum,Potassium,mmol/L,2.94969017896397,3.5,5,0.1
01-003,1,Site 01,2015-08-14,Y,Unscheduled 0.1,0.1,2015-08-22,9,Serum,Sodium,mmol/L,145.78198030527,136,145,0.1
01-003,1,Site 01,2015-08-14,Y,Unscheduled 0.1,0.1,2015-08-22,9,Serum,Total Bilirubin,µmol/L,7.54921993400722,5.1,20.5,0.1
01-003,1,Site 01,2015-08-14,Y,Unscheduled 0.1,0.1,2015-08-22,9,Vital Signs,Diastolic Blood Pressure,mmHg,46.7972961196538,60,80,0.1
01-003,1,Site 01,2015-08-14,Y,Unscheduled 0.1,0.1,2015-08-22,9,Vital Signs,Heart Rate,beats/minute,68.6458101229868,50,80,0.1
01-003,1,Site 01,2015-08-14,Y,Unscheduled 0.1,0.1,2015-08-22,9,Vital Signs,Respiratory Rate,breaths/minute,22.1151865846861,16,20,0.1
01-003,1,Site 01,2015-08-14,Y,Unscheduled 0.1,0.1,2015-08-22,9,Vital Signs,Systolic Blood Pressure,mmHg,103.274565502826,90,120,0.1
01-003,1,Site 01,2015-08-14,Y,Unscheduled 0.1,0.1,2015-08-22,9,Vital Signs,Temperature,°C,36.6387120645677,36.6,37,0.1
01-003,1,Site 01,2015-08-14,Y,Visit 1,1,2015-10-05,53,Blood,Platelet count,x 109/L,175.290582986618,150,350,1
01-003,1,Site 01,2015-08-14,Y,Visit 1,1,2015-10-05,53,Blood,RBC count,x 1012 cells/L,5.07654526002678,4.2,5.9,1
01-003,1,Site 01,2015-08-14,Y,Visit 1,1,2015-10-05,53,Blood,WBC count,x 109 cells/L,6.65301651148872,4.5,11,1
01-003,1,Site 01,2015-08-14,Y,Visit 1,1,2015-10-05,53,Serum,Albumin,g/L,42.9928037091179,35,55,1
01-003,1,Site 01,2015-08-14,Y,Visit 1,1,2015-10-05,53,Serum,Alkaline phosphatase (ALP),µkat/L,1.22993618574611,0.5,1.5,1
01-003,1,Site 01,2015-08-14,Y,Visit 1,1,2015-10-05,53,Serum,"Aminotransferase, alanine (ALT)",pkat/L,0.779353025983582,0,0.58,1
01-003,1,Site 01,2015-08-14,Y,Visit 1,1,2015-10-05,53,Serum,"Aminotransferase, aspartate (AST)",pkat/L,0.563865658786749,0,0.58,1
01-003,1,Site 01,2015-08-14,Y,Visit 1,1,2015-10-05,53,Serum,Calcium,mmol/L,2.39874136255693,2.2,2.6,1
01-003,1,Site 01,2015-08-14,Y,Visit 1,1,2015-10-05,53,Serum,Chloride,mmol/L,,98,106,1
01-003,1,Site 01,2015-08-14,Y,Visit 1,1,2015-10-05,53,Serum,Creatinine,µmol/L,46.6768326268138,61.9,115,1
01-003,1,Site 01,2015-08-14,Y,Visit 1,1,2015-10-05,53,Serum,Direct Bilirubin,µmol/L,2.41558012586117,0,5.1,1
01-003,1,Site 01,2015-08-14,Y,Visit 1,1,2015-10-05,53,Serum,IgE,mg/L,0.166788772948486,0.1,0.4,1
01-003,1,Site 01,2015-08-14,Y,Visit 1,1,2015-10-05,53,Serum,Magnesium,mmol/L,1.07548410406877,0.62,0.99,1
01-003,1,Site 01,2015-08-14,Y,Visit 1,1,2015-10-05,53,Serum,Potassium,mmol/L,6.00745950957447,3.5,5,1
01-003,1,Site 01,2015-08-14,Y,Visit 1,1,2015-10-05,53,Serum,Sodium,mmol/L,136.82563219307,136,145,1
01-003,1,Site 01,2015-08-14,Y,Visit 1,1,2015-10-05,53,Serum,Total Bilirubin,µmol/L,26.5905364603515,5.1,20.5,1
01-003,1,Site 01,2015-08-14,Y,Visit 1,1,2015-10-05,53,Vital Signs,Diastolic Blood Pressure,mmHg,72.2038778493554,60,80,1
01-003,1,Site 01,2015-08-14,Y,Visit 1,1,2015-10-05,53,Vital Signs,Heart Rate,beats/minute,73.8095648167025,50,80,1
01-003,1,Site 01,2015-08-14,Y,Visit 1,1,2015-10-05,53,Vital Signs,Respiratory Rate,breaths/minute,,16,20,1
01-003,1,Site 01,2015-08-14,Y,Visit 1,1,2015-10-05,53,Vital Signs,Systolic Blood Pressure,mmHg,83.084985881373,90,120,1
01-003,1,Site 01,2015-08-14,Y,Visit 1,1,2015-10-05,53,Vital Signs,Temperature,°C,36.8558876867788,36.6,37,1
01-003,1,Site 01,2015-08-14,Y,Visit 2,2,2015-12-09,118,Blood,Platelet count,x 109/L,124.671147171301,150,350,2
01-003,1,Site 01,2015-08-14,Y,Visit 2,2,2015-12-09,118,Blood,RBC count,x 1012 cells/L,4.7924044683356,4.2,5.9,2
01-003,1,Site 01,2015-08-14,Y,Visit 2,2,2015-12-09,118,Blood,WBC count,x 109 cells/L,9.6288428673302,4.5,11,2
01-003,1,Site 01,2015-08-14,Y,Visit 2,2,2015-12-09,118,Serum,Albumin,g/L,46.8971623803667,35,55,2
01-003,1,Site 01,2015-08-14,Y,Visit 2,2,2015-12-09,118,Serum,Alkaline phosphatase (ALP),µkat/L,1.00899680879572,0.5,1.5,2
01-003,1,Site 01,2015-08-14,Y,Visit 2,2,2015-12-09,118,Serum,"Aminotransferase, alanine (ALT)",pkat/L,0.311555986581728,0,0.58,2
01-003,1,Site 01,2015-08-14,Y,Visit 2,2,2015-12-09,118,Serum,"Aminotransferase, aspartate (AST)",pkat/L,0.473704995082346,0,0.58,2
01-003,1,Site 01,2015-08-14,Y,Visit 2,2,2015-12-09,118,Serum,Calcium,mmol/L,2.48630173618568,2.2,2.6,2
01-003,1,Site 01,2015-08-14,Y,Visit 2,2,2015-12-09,118,Serum,Chloride,mmol/L,103.68924342176,98,106,2
01-003,1,Site 01,2015-08-14,Y,Visit 2,2,2015-12-09,118,Serum,Creatinine,µmol/L,115.943852905367,61.9,115,2
01-003,1,Site 01,2015-08-14,Y,Visit 2,2,2015-12-09,118,Serum,Direct Bilirubin,µmol/L,0,0,5.1,2
01-003,1,Site 01,2015-08-14,Y,Visit 2,2,2015-12-09,118,Serum,IgE,mg/L,0.752358037956007,0.1,0.4,2
01-003,1,Site 01,2015-08-14,Y,Visit 2,2,2015-12-09,118,Serum,Magnesium,mmol/L,1.03046180421843,0.62,0.99,2
01-003,1,Site 01,2015-08-14,Y,Visit 2,2,2015-12-09,118,Serum,Potassium,mmol/L,4.67474017852523,3.5,5,2
01-003,1,Site 01,2015-08-14,Y,Visit 2,2,2015-12-09,118,Serum,Sodium,mmol/L,140.061961580653,136,145,2
01-003,1,Site 01,2015-08-14,Y,Visit 2,2,2015-12-09,118,Serum,Total Bilirubin,µmol/L,11.4873680683192,5.1,20.5,2
01-003,1,Site 01,2015-08-14,Y,Visit 2,2,2015-12-09,118,Vital Signs,Diastolic Blood Pressure,mmHg,,60,80,2
01-003,1,Site 01,2015-08-14,Y,Visit 2,2,2015-12-09,118,Vital Signs,Heart Rate,beats/minute,60.2155937943917,50,80,2
01-003,1,Site 01,2015-08-14,Y,Visit 2,2,2015-12-09,118,Vital Signs,Respiratory Rate,breaths/minute,16.2588898030988,16,20,2
01-003,1,Site 01,2015-08-14,Y,Visit 2,2,2015-12-09,118,Vital Signs,Systolic Blood Pressure,mmHg,83.2356273204574,90,120,2
01-003,1,Site 01,2015-08-14,Y,Visit 2,2,2015-12-09,118,Vital Signs,Temperature,°C,36.8671914119849,36.6,37,2
01-003,1,Site 01,2015-08-14,Y,Visit 3,3,2016-01-28,168,Blood,Platelet count,x 109/L,246.104899216653,150,350,3
01-003,1,Site 01,2015-08-14,Y,Visit 3,3,2016-01-28,168,Blood,RBC count,x 1012 cells/L,5.51019003020005,4.2,5.9,3
01-003,1,Site 01,2015-08-14,Y,Visit 3,3,2016-01-28,168,Blood,WBC count,x 109 cells/L,0,4.5,11,3
01-003,1,Site 01,2015-08-14,Y,Visit 3,3,2016-01-28,168,Serum,Albumin,g/L,44.5820817782363,35,55,3
01-003,1,Site 01,2015-08-14,Y,Visit 3,3,2016-01-28,168,Serum,Alkaline phosphatase (ALP),µkat/L,,0.5,1.5,3
01-003,1,Site 01,2015-08-14,Y,Visit 3,3,2016-01-28,168,Serum,"Aminotransferase, alanine (ALT)",pkat/L,0.480864529477909,0,0.58,3
01-003,1,Site 01,2015-08-14,Y,Visit 3,3,2016-01-28,168,Serum,"Aminotransferase, aspartate (AST)",pkat/L,0,0,0.58,3
01-003,1,Site 01,2015-08-14,Y,Visit 3,3,2016-01-28,168,Serum,Calcium,mmol/L,2.85790964806187,2.2,2.6,3
01-003,1,Site 01,2015-08-14,Y,Visit 3,3,2016-01-28,168,Serum,Chloride,mmol/L,98.7870255474392,98,106,3
01-003,1,Site 01,2015-08-14,Y,Visit 3,3,2016-01-28,168,Serum,Creatinine,µmol/L,67.8986845806728,61.9,115,3
01-003,1,Site 01,2015-08-14,Y,Visit 3,3,2016-01-28,168,Serum,Direct Bilirubin,µmol/L,7.63824382581563,0,5.1,3
01-003,1,Site 01,2015-08-14,Y,Visit 3,3,2016-01-28,168,Serum,IgE,mg/L,0.140702452256999,0.1,0.4,3
01-003,1,Site 01,2015-08-14,Y,Visit 3,3,2016-01-28,168,Serum,Magnesium,mmol/L,0.648739400502981,0.62,0.99,3
01-003,1,Site 01,2015-08-14,Y,Visit 3,3,2016-01-28,168,Serum,Potassium,mmol/L,3.531828065982,3.5,5,3
01-003,1,Site 01,2015-08-14,Y,Visit 3,3,2016-01-28,168,Serum,Sodium,mmol/L,,136,145,3
01-003,1,Site 01,2015-08-14,Y,Visit 3,3,2016-01-28,168,Serum,Total Bilirubin,µmol/L,0,5.1,20.5,3
01-003,1,Site 01,2015-08-14,Y,Visit 3,3,2016-01-28,168,Vital Signs,Diastolic Blood Pressure,mmHg,,60,80,3
01-003,1,Site 01,2015-08-14,Y,Visit 3,3,2016-01-28,168,Vital Signs,Heart Rate,beats/minute,,50,80,3
01-003,1,Site 01,2015-08-14,Y,Visit 3,3,2016-01-28,168,Vital Signs,Respiratory Rate,breaths/minute,14.7507804307273,16,20,3
01-003,1,Site 01,2015-08-14,Y,Visit 3,3,2016-01-28,168,Vital Signs,Systolic Blood Pressure,mmHg,115.062230153604,90,120,3
01-003,1,Site 01,2015-08-14,Y,Visit 3,3,2016-01-28,168,Vital Signs,Temperature,°C,36.8628757840792,36.6,37,3
01-003,1,Site 01,2015-08-14,Y,Visit 4,4,2016-03-22,222,Blood,Platelet count,x 109/L,119.617626360633,150,350,4
01-003,1,Site 01,2015-08-14,Y,Visit 4,4,2016-03-22,222,Blood,RBC count,x 1012 cells/L,5.94202306198192,4.2,5.9,4
01-003,1,Site 01,2015-08-14,Y,Visit 4,4,2016-03-22,222,Blood,WBC count,x 109 cells/L,5.56455627049745,4.5,11,4
01-003,1,Site 01,2015-08-14,Y,Visit 4,4,2016-03-22,222,Serum,Albumin,g/L,52.6777892269523,35,55,4
01-003,1,Site 01,2015-08-14,Y,Visit 4,4,2016-03-22,222,Serum,Alkaline phosphatase (ALP),µkat/L,0.987422314902211,0.5,1.5,4
01-003,1,Site 01,2015-08-14,Y,Visit 4,4,2016-03-22,222,Serum,"Aminotransferase, alanine (ALT)",pkat/L,0,0,0.58,4
01-003,1,Site 01,2015-08-14,Y,Visit 4,4,2016-03-22,222,Serum,"Aminotransferase, aspartate (AST)",pkat/L,0.797254788094703,0,0.58,4
01-003,1,Site 01,2015-08-14,Y,Visit 4,4,2016-03-22,222,Serum,Calcium,mmol/L,2.35240296867047,2.2,2.6,4
01-003,1,Site 01,2015-08-14,Y,Visit 4,4,2016-03-22,222,Serum,Chloride,mmol/L,,98,106,4
01-003,1,Site 01,2015-08-14,Y,Visit 4,4,2016-03-22,222,Serum,Creatinine,µmol/L,47.4056449335471,61.9,115,4
01-003,1,Site 01,2015-08-14,Y,Visit 4,4,2016-03-22,222,Serum,Direct Bilirubin,µmol/L,0,0,5.1,4
01-003,1,Site 01,2015-08-14,Y,Visit 4,4,2016-03-22,222,Serum,IgE,mg/L,0.32964162468211,0.1,0.4,4
01-003,1,Site 01,2015-08-14,Y,Visit 4,4,2016-03-22,222,Serum,Magnesium,mmol/L,0.907780847984225,0.62,0.99,4
01-003,1,Site 01,2015-08-14,Y,Visit 4,4,2016-03-22,222,Serum,Potassium,mmol/L,3.68806573069659,3.5,5,4
01-003,1,Site 01,2015-08-14,Y,Visit 4,4,2016-03-22,222,Serum,Sodium,mmol/L,141.286672506985,136,145,4
01-003,1,Site 01,2015-08-14,Y,Visit 4,4,2016-03-22,222,Serum,Total Bilirubin,µmol/L,,5.1,20.5,4
01-003,1,Site 01,2015-08-14,Y,Visit 4,4,2016-03-22,222,Vital Signs,Diastolic Blood Pressure,mmHg,75.303852367261,60,80,4
01-003,1,Site 01,2015-08-14,Y,Visit 4,4,2016-03-22,222,Vital Signs,Heart Rate,beats/minute,47.9497038967719,50,80,4
01-003,1,Site 01,2015-08-14,Y,Visit 4,4,2016-03-22,222,Vital Signs,Respiratory Rate,breaths/minute,15.94171998367,16,20,4
01-003,1,Site 01,2015-08-14,Y,Visit 4,4,2016-03-22,222,Vital Signs,Systolic Blood Pressure,mmHg,,90,120,4
01-003,1,Site 01,2015-08-14,Y,Visit 4,4,2016-03-22,222,Vital Signs,Temperature,°C,37.0205478899803,36.6,37,4
01-003,1,Site 01,2015-08-14,Y,Visit 5,5,2016-05-17,278,Blood,Platelet count,x 109/L,264.739919876927,150,350,5
01-003,1,Site 01,2015-08-14,Y,Visit 5,5,2016-05-17,278,Blood,RBC count,x 1012 cells/L,6.3145445382636,4.2,5.9,5
01-003,1,Site 01,2015-08-14,Y,Visit 5,5,2016-05-17,278,Blood,WBC count,x 109 cells/L,,4.5,11,5
01-003,1,Site 01,2015-08-14,Y,Visit 5,5,2016-05-17,278,Serum,Albumin,g/L,41.5270331239699,35,55,5
01-003,1,Site 01,2015-08-14,Y,Visit 5,5,2016-05-17,278,Serum,Alkaline phosphatase (ALP),µkat/L,1.42582550545413,0.5,1.5,5
01-003,1,Site 01,2015-08-14,Y,Visit 5,5,2016-05-17,278,Serum,"Aminotransferase, alanine (ALT)",pkat/L,0.0889390970023709,0,0.58,5
01-003,1,Site 01,2015-08-14,Y,Visit 5,5,2016-05-17,278,Serum,"Aminotransferase, aspartate (AST)",pkat/L,0,0,0.58,5
01-003,1,Site 01,2015-08-14,Y,Visit 5,5,2016-05-17,278,Serum,Calcium,mmol/L,1.9961475673778,2.2,2.6,5
01-003,1,Site 01,2015-08-14,Y,Visit 5,5,2016-05-17,278,Serum,Chloride,mmol/L,,98,106,5
01-003,1,Site 01,2015-08-14,Y,Visit 5,5,2016-05-17,278,Serum,Creatinine,µmol/L,58.3690933886268,61.9,115,5
01-003,1,Site 01,2015-08-14,Y,Visit 5,5,2016-05-17,278,Serum,Direct Bilirubin,µmol/L,0.173061044992896,0,5.1,5
01-003,1,Site 01,2015-08-14,Y,Visit 5,5,2016-05-17,278,Serum,IgE,mg/L,0.314668581985684,0.1,0.4,5
01-003,1,Site 01,2015-08-14,Y,Visit 5,5,2016-05-17,278,Serum,Magnesium,mmol/L,0.766427967296359,0.62,0.99,5
01-003,1,Site 01,2015-08-14,Y,Visit 5,5,2016-05-17,278,Serum,Potassium,mmol/L,,3.5,5,5
01-003,1,Site 01,2015-08-14,Y,Visit 5,5,2016-05-17,278,Serum,Sodium,mmol/L,136.339439958173,136,145,5
01-003,1,Site 01,2015-08-14,Y,Visit 5,5,2016-05-17,278,Serum,Total Bilirubin,µmol/L,13.847513458568,5.1,20.5,5
01-003,1,Site 01,2015-08-14,Y,Visit 5,5,2016-05-17,278,Vital Signs,Diastolic Blood Pressure,mmHg,67.9436932590303,60,80,5
01-003,1,Site 01,2015-08-14,Y,Visit 5,5,2016-05-17,278,Vital Signs,Heart Rate,beats/minute,62.311179893552,50,80,5
01-003,1,Site 01,2015-08-14,Y,Visit 5,5,2016-05-17,278,Vital Signs,Respiratory Rate,breaths/minute,18.7295591068576,16,20,5
01-003,1,Site 01,2015-08-14,Y,Visit 5,5,2016-05-17,278,Vital Signs,Systolic Blood Pressure,mmHg,,90,120,5
01-003,1,Site 01,2015-08-14,Y,Visit 5,5,2016-05-17,278,Vital Signs,Temperature,°C,36.74234172568,36.6,37,5
01-003,1,Site 01,2015-08-14,Y,Visit 6,6,2016-07-14,336,Blood,Platelet count,x 109/L,267.650231588692,150,350,6
01-003,1,Site 01,2015-08-14,Y,Visit 6,6,2016-07-14,336,Blood,RBC count,x 1012 cells/L,,4.2,5.9,6
01-003,1,Site 01,2015-08-14,Y,Visit 6,6,2016-07-14,336,Blood,WBC count,x 109 cells/L,11.1969483866284,4.5,11,6
01-003,1,Site 01,2015-08-14,Y,Visit 6,6,2016-07-14,336,Serum,Albumin,g/L,28.5333407269246,35,55,6
01-003,1,Site 01,2015-08-14,Y,Visit 6,6,2016-07-14,336,Serum,Alkaline phosphatase (ALP),µkat/L,1.02896347463219,0.5,1.5,6
01-003,1,Site 01,2015-08-14,Y,Visit 6,6,2016-07-14,336,Serum,"Aminotransferase, alanine (ALT)",pkat/L,,0,0.58,6
01-003,1,Site 01,2015-08-14,Y,Visit 6,6,2016-07-14,336,Serum,"Aminotransferase, aspartate (AST)",pkat/L,0.315975609806982,0,0.58,6
01-003,1,Site 01,2015-08-14,Y,Visit 6,6,2016-07-14,336,Serum,Calcium,mmol/L,,2.2,2.6,6
01-003,1,Site 01,2015-08-14,Y,Visit 6,6,2016-07-14,336,Serum,Chloride,mmol/L,100.884475598692,98,106,6
01-003,1,Site 01,2015-08-14,Y,Visit 6,6,2016-07-14,336,Serum,Creatinine,µmol/L,95.5695188171474,61.9,115,6
01-003,1,Site 01,2015-08-14,Y,Visit 6,6,2016-07-14,336,Serum,Direct Bilirubin,µmol/L,2.7821037695051,0,5.1,6
01-003,1,Site 01,2015-08-14,Y,Visit 6,6,2016-07-14,336,Serum,IgE,mg/L,0.112381093102753,0.1,0.4,6
01-003,1,Site 01,2015-08-14,Y,Visit 6,6,2016-07-14,336,Serum,Magnesium,mmol/L,,0.62,0.99,6
01-003,1,Site 01,2015-08-14,Y,Visit 6,6,2016-07-14,336,Serum,Potassium,mmol/L,3.71827936197375,3.5,5,6
01-003,1,Site 01,2015-08-14,Y,Visit 6,6,2016-07-14,336,Serum,Sodium,mmol/L,137.696765643652,136,145,6
01-003,1,Site 01,2015-08-14,Y,Visit 6,6,2016-07-14,336,Serum,Total Bilirubin,µmol/L,27.3464143400716,5.1,20.5,6
01-003,1,Site 01,2015-08-14,Y,Visit 6,6,2016-07-14,336,Vital Signs,Diastolic Blood Pressure,mmHg,,60,80,6
01-003,1,Site 01,2015-08-14,Y,Visit 6,6,2016-07-14,336,Vital Signs,Heart Rate,beats/minute,,50,80,6
01-003,1,Site 01,2015-08-14,Y,Visit 6,6,2016-07-14,336,Vital Signs,Respiratory Rate,breaths/minute,19.7869398396238,16,20,6
01-003,1,Site 01,2015-08-14,Y,Visit 6,6,2016-07-14,336,Vital Signs,Systolic Blood Pressure,mmHg,95.2815014340498,90,120,6
01-003,1,Site 01,2015-08-14,Y,Visit 6,6,2016-07-14,336,Vital Signs,Temperature,°C,36.7424114280014,36.6,37,6
01-003,1,Site 01,2015-08-14,Y,End of Study,7,2016-08-19,372,Blood,Platelet count,x 109/L,113.686521932303,150,350,7
01-003,1,Site 01,2015-08-14,Y,End of Study,7,2016-08-19,372,Blood,RBC count,x 1012 cells/L,5.42991875324651,4.2,5.9,7
01-003,1,Site 01,2015-08-14,Y,End of Study,7,2016-08-19,372,Blood,WBC count,x 109 cells/L,8.14532931539884,4.5,11,7
01-003,1,Site 01,2015-08-14,Y,End of Study,7,2016-08-19,372,Serum,Albumin,g/L,76.7621892537589,35,55,7
01-003,1,Site 01,2015-08-14,Y,End of Study,7,2016-08-19,372,Serum,Alkaline phosphatase (ALP),µkat/L,0.424775811283336,0.5,1.5,7
01-003,1,Site 01,2015-08-14,Y,End of Study,7,2016-08-19,372,Serum,"Aminotransferase, alanine (ALT)",pkat/L,0.258432641599254,0,0.58,7
01-003,1,Site 01,2015-08-14,Y,End of Study,7,2016-08-19,372,Serum,"Aminotransferase, aspartate (AST)",pkat/L,0.478588678412311,0,0.58,7
01-003,1,Site 01,2015-08-14,Y,End of Study,7,2016-08-19,372,Serum,Calcium,mmol/L,2.11839504922422,2.2,2.6,7
01-003,1,Site 01,2015-08-14,Y,End of Study,7,2016-08-19,372,Serum,Chloride,mmol/L,,98,106,7
01-003,1,Site 01,2015-08-14,Y,End of Study,7,2016-08-19,372,Serum,Creatinine,µmol/L,91.9480656990301,61.9,115,7
01-003,1,Site 01,2015-08-14,Y,End of Study,7,2016-08-19,372,Serum,Direct Bilirubin,µmol/L,,0,5.1,7
01-003,1,Site 01,2015-08-14,Y,End of Study,7,2016-08-19,372,Serum,IgE,mg/L,0.344809626094944,0.1,0.4,7
01-003,1,Site 01,2015-08-14,Y,End of Study,7,2016-08-19,372,Serum,Magnesium,mmol/L,1.06097968448812,0.62,0.99,7
01-003,1,Site 01,2015-08-14,Y,End of Study,7,2016-08-19,372,Serum,Potassium,mmol/L,4.42455990683053,3.5,5,7
01-003,1,Site 01,2015-08-14,Y,End of Study,7,2016-08-19,372,Serum,Sodium,mmol/L,145.850859543941,136,145,7
01-003,1,Site 01,2015-08-14,Y,End of Study,7,2016-08-19,372,Serum,Total Bilirubin,µmol/L,17.6582277305605,5.1,20.5,7
01-003,1,Site 01,2015-08-14,Y,End of Study,7,2016-08-19,372,Vital Signs,Diastolic Blood Pressure,mmHg,72.0953562493061,60,80,7
01-003,1,Site 01,2015-08-14,Y,End of Study,7,2016-08-19,372,Vital Signs,Heart Rate,beats/minute,64.1171456825495,50,80,7
01-003,1,Site 01,2015-08-14,Y,End of Study,7,2016-08-19,372,Vital Signs,Respiratory Rate,breaths/minute,20.6057982545154,16,20,7
01-003,1,Site 01,2015-08-14,Y,End of Study,7,2016-08-19,372,Vital Signs,Systolic Blood Pressure,mmHg,98.2903226687268,90,120,7
01-003,1,Site 01,2015-08-14,Y,End of Study,7,2016-08-19,372,Vital Signs,Temperature,°C,36.6976393696249,36.6,37,7
01-004,1,Site 01,2015-01-13,Y,Screening,0,2015-01-13,1,Blood,Platelet count,x 109/L,116.435348656289,150,350,0
01-004,1,Site 01,2015-01-13,Y,Screening,0,2015-01-13,1,Blood,RBC count,x 1012 cells/L,4.20297456987509,4.2,5.9,0
01-004,1,Site 01,2015-01-13,Y,Screening,0,2015-01-13,1,Blood,WBC count,x 109 cells/L,10.882152086181,4.5,11,0
01-004,1,Site 01,2015-01-13,Y,Screening,0,2015-01-13,1,Serum,Albumin,g/L,56.3347194281717,35,55,0
01-004,1,Site 01,2015-01-13,Y,Screening,0,2015-01-13,1,Serum,Alkaline phosphatase (ALP),µkat/L,,0.5,1.5,0
01-004,1,Site 01,2015-01-13,Y,Screening,0,2015-01-13,1,Serum,"Aminotransferase, alanine (ALT)",pkat/L,0.262900991585928,0,0.58,0
01-004,1,Site 01,2015-01-13,Y,Screening,0,2015-01-13,1,Serum,"Aminotransferase, aspartate (AST)",pkat/L,0.177212990614355,0,0.58,0
01-004,1,Site 01,2015-01-13,Y,Screening,0,2015-01-13,1,Serum,Calcium,mmol/L,2.67830825929582,2.2,2.6,0
01-004,1,Site 01,2015-01-13,Y,Screening,0,2015-01-13,1,Serum,Chloride,mmol/L,102.093206061535,98,106,0
01-004,1,Site 01,2015-01-13,Y,Screening,0,2015-01-13,1,Serum,Creatinine,µmol/L,108.505354230132,61.9,115,0
01-004,1,Site 01,2015-01-13,Y,Screening,0,2015-01-13,1,Serum,Direct Bilirubin,µmol/L,,0,5.1,0
01-004,1,Site 01,2015-01-13,Y,Screening,0,2015-01-13,1,Serum,IgE,mg/L,0.321888920291902,0.1,0.4,0
01-004,1,Site 01,2015-01-13,Y,Screening,0,2015-01-13,1,Serum,Magnesium,mmol/L,0.778934472179033,0.62,0.99,0
01-004,1,Site 01,2015-01-13,Y,Screening,0,2015-01-13,1,Serum,Potassium,mmol/L,4.35831243537953,3.5,5,0
01-004,1,Site 01,2015-01-13,Y,Screening,0,2015-01-13,1,Serum,Sodium,mmol/L,143.617652285733,136,145,0
01-004,1,Site 01,2015-01-13,Y,Screening,0,2015-01-13,1,Serum,Total Bilirubin,µmol/L,20.0868860814231,5.1,20.5,0
01-004,1,Site 01,2015-01-13,Y,Screening,0,2015-01-13,1,Vital Signs,Diastolic Blood Pressure,mmHg,84.8220753058711,60,80,0
01-004,1,Site 01,2015-01-13,Y,Screening,0,2015-01-13,1,Vital Signs,Heart Rate,beats/minute,51.415669692097,50,80,0
01-004,1,Site 01,2015-01-13,Y,Screening,0,2015-01-13,1,Vital Signs,Respiratory Rate,breaths/minute,17.3038668412975,16,20,0
01-004,1,Site 01,2015-01-13,Y,Screening,0,2015-01-13,1,Vital Signs,Systolic Blood Pressure,mmHg,85.2648908700005,90,120,0
01-004,1,Site 01,2015-01-13,Y,Screening,0,2015-01-13,1,Vital Signs,Temperature,°C,36.6182477403154,36.6,37,0
01-004,1,Site 01,2015-01-13,Y,Visit 1,1,2015-03-03,50,Blood,Platelet count,x 109/L,267.982350919185,150,350,1
01-004,1,Site 01,2015-01-13,Y,Visit 1,1,2015-03-03,50,Blood,RBC count,x 1012 cells/L,4.2606566527605,4.2,5.9,1
01-004,1,Site 01,2015-01-13,Y,Visit 1,1,2015-03-03,50,Blood,WBC count,x 109 cells/L,7.21785337164291,4.5,11,1
01-004,1,Site 01,2015-01-13,Y,Visit 1,1,2015-03-03,50,Serum,Albumin,g/L,54.4247543180065,35,55,1
01-004,1,Site 01,2015-01-13,Y,Visit 1,1,2015-03-03,50,Serum,Alkaline phosphatase (ALP),µkat/L,0.459285738200132,0.5,1.5,1
01-004,1,Site 01,2015-01-13,Y,Visit 1,1,2015-03-03,50,Serum,"Aminotransferase, alanine (ALT)",pkat/L,0.462110712811875,0,0.58,1
01-004,1,Site 01,2015-01-13,Y,Visit 1,1,2015-03-03,50,Serum,"Aminotransferase, aspartate (AST)",pkat/L,0,0,0.58,1
01-004,1,Site 01,2015-01-13,Y,Visit 1,1,2015-03-03,50,Serum,Calcium,mmol/L,2.07613687706431,2.2,2.6,1
01-004,1,Site 01,2015-01-13,Y,Visit 1,1,2015-03-03,50,Serum,Chloride,mmol/L,,98,106,1
01-004,1,Site 01,2015-01-13,Y,Visit 1,1,2015-03-03,50,Serum,Creatinine,µmol/L,94.3817998968779,61.9,115,1
01-004,1,Site 01,2015-01-13,Y,Visit 1,1,2015-03-03,50,Serum,Direct Bilirubin,µmol/L,0,0,5.1,1
01-004,1,Site 01,2015-01-13,Y,Visit 1,1,2015-03-03,50,Serum,IgE,mg/L,0.267635757657066,0.1,0.4,1
01-004,1,Site 01,2015-01-13,Y,Visit 1,1,2015-03-03,50,Serum,Magnesium,mmol/L,0.809909140439191,0.62,0.99,1
01-004,1,Site 01,2015-01-13,Y,Visit 1,1,2015-03-03,50,Serum,Potassium,mmol/L,4.74701063289354,3.5,5,1
01-004,1,Site 01,2015-01-13,Y,Visit 1,1,2015-03-03,50,Serum,Sodium,mmol/L,140.57298778291,136,145,1
01-004,1,Site 01,2015-01-13,Y,Visit 1,1,2015-03-03,50,Serum,Total Bilirubin,µmol/L,7.90717311986534,5.1,20.5,1
01-004,1,Site 01,2015-01-13,Y,Visit 1,1,2015-03-03,50,Vital Signs,Diastolic Blood Pressure,mmHg,64.673042176822,60,80,1
01-004,1,Site 01,2015-01-13,Y,Visit 1,1,2015-03-03,50,Vital Signs,Heart Rate,beats/minute,69.6783922668525,50,80,1
01-004,1,Site 01,2015-01-13,Y,Visit 1,1,2015-03-03,50,Vital Signs,Respiratory Rate,breaths/minute,17.5924066049269,16,20,1
01-004,1,Site 01,2015-01-13,Y,Visit 1,1,2015-03-03,50,Vital Signs,Systolic Blood Pressure,mmHg,70.4733218899236,90,120,1
01-004,1,Site 01,2015-01-13,Y,Visit 1,1,2015-03-03,50,Vital Signs,Temperature,°C,37.2340017117041,36.6,37,1
01-004,1,Site 01,2015-01-13,Y,Visit 2,2,2015-05-01,109,Blood,Platelet count,x 109/L,374.79160801141,150,350,2
01-004,1,Site 01,2015-01-13,Y,Visit 2,2,2015-05-01,109,Blood,RBC count,x 1012 cells/L,6.84425580001966,4.2,5.9,2
01-004,1,Site 01,2015-01-13,Y,Visit 2,2,2015-05-01,109,Blood,WBC count,x 109 cells/L,5.55223696517204,4.5,11,2
01-004,1,Site 01,2015-01-13,Y,Visit 2,2,2015-05-01,109,Serum,Albumin,g/L,35.8239056335028,35,55,2
01-004,1,Site 01,2015-01-13,Y,Visit 2,2,2015-05-01,109,Serum,Alkaline phosphatase (ALP),µkat/L,1.70566598918395,0.5,1.5,2
01-004,1,Site 01,2015-01-13,Y,Visit 2,2,2015-05-01,109,Serum,"Aminotransferase, alanine (ALT)",pkat/L,0.144609845266858,0,0.58,2
01-004,1,Site 01,2015-01-13,Y,Visit 2,2,2015-05-01,109,Serum,"Aminotransferase, aspartate (AST)",pkat/L,0.276862183715109,0,0.58,2
01-004,1,Site 01,2015-01-13,Y,Visit 2,2,2015-05-01,109,Serum,Calcium,mmol/L,2.27237716393068,2.2,2.6,2
01-004,1,Site 01,2015-01-13,Y,Visit 2,2,2015-05-01,109,Serum,Chloride,mmol/L,97.1974631314077,98,106,2
01-004,1,Site 01,2015-01-13,Y,Visit 2,2,2015-05-01,109,Serum,Creatinine,µmol/L,89.0707439584603,61.9,115,2
01-004,1,Site 01,2015-01-13,Y,Visit 2,2,2015-05-01,109,Serum,Direct Bilirubin,µmol/L,4.96095024956007,0,5.1,2
01-004,1,Site 01,2015-01-13,Y,Visit 2,2,2015-05-01,109,Serum,IgE,mg/L,,0.1,0.4,2
01-004,1,Site 01,2015-01-13,Y,Visit 2,2,2015-05-01,109,Serum,Magnesium,mmol/L,0.695836698962725,0.62,0.99,2
01-004,1,Site 01,2015-01-13,Y,Visit 2,2,2015-05-01,109,Serum,Potassium,mmol/L,3.37829065401801,3.5,5,2
01-004,1,Site 01,2015-01-13,Y,Visit 2,2,2015-05-01,109,Serum,Sodium,mmol/L,140.800509611541,136,145,2
01-004,1,Site 01,2015-01-13,Y,Visit 2,2,2015-05-01,109,Serum,Total Bilirubin,µmol/L,16.5150061505764,5.1,20.5,2
01-004,1,Site 01,2015-01-13,Y,Visit 2,2,2015-05-01,109,Vital Signs,Diastolic Blood Pressure,mmHg,,60,80,2
01-004,1,Site 01,2015-01-13,Y,Visit 2,2,2015-05-01,109,Vital Signs,Heart Rate,beats/minute,51.586901305358,50,80,2
01-004,1,Site 01,2015-01-13,Y,Visit 2,2,2015-05-01,109,Vital Signs,Respiratory Rate,breaths/minute,,16,20,2
01-004,1,Site 01,2015-01-13,Y,Visit 2,2,2015-05-01,109,Vital Signs,Systolic Blood Pressure,mmHg,90.2554206070621,90,120,2
01-004,1,Site 01,2015-01-13,Y,Visit 2,2,2015-05-01,109,Vital Signs,Temperature,°C,36.4478250468044,36.6,37,2
01-004,1,Site 01,2015-01-13,Y,Visit 3,3,2015-06-25,164,Blood,Platelet count,x 109/L,234.213651110506,150,350,3
01-004,1,Site 01,2015-01-13,Y,Visit 3,3,2015-06-25,164,Blood,RBC count,x 1012 cells/L,3.40086322471893,4.2,5.9,3
01-004,1,Site 01,2015-01-13,Y,Visit 3,3,2015-06-25,164,Blood,WBC count,x 109 cells/L,7.81138971371335,4.5,11,3
01-004,1,Site 01,2015-01-13,Y,Visit 3,3,2015-06-25,164,Serum,Albumin,g/L,52.8316273601826,35,55,3
01-004,1,Site 01,2015-01-13,Y,Visit 3,3,2015-06-25,164,Serum,Alkaline phosphatase (ALP),µkat/L,0.670520717874627,0.5,1.5,3
01-004,1,Site 01,2015-01-13,Y,Visit 3,3,2015-06-25,164,Serum,"Aminotransferase, alanine (ALT)",pkat/L,0.202102538702251,0,0.58,3
01-004,1,Site 01,2015-01-13,Y,Visit 3,3,2015-06-25,164,Serum,"Aminotransferase, aspartate (AST)",pkat/L,0.534150140206022,0,0.58,3
01-004,1,Site 01,2015-01-13,Y,Visit 3,3,2015-06-25,164,Serum,Calcium,mmol/L,2.6047520759922,2.2,2.6,3
01-004,1,Site 01,2015-01-13,Y,Visit 3,3,2015-06-25,164,Serum,Chloride,mmol/L,103.607370469467,98,106,3
01-004,1,Site 01,2015-01-13,Y,Visit 3,3,2015-06-25,164,Serum,Creatinine,µmol/L,81.2771164993477,61.9,115,3
01-004,1,Site 01,2015-01-13,Y,Visit 3,3,2015-06-25,164,Serum,Direct Bilirubin,µmol/L,7.90747496724615,0,5.1,3
01-004,1,Site 01,2015-01-13,Y,Visit 3,3,2015-06-25,164,Serum,IgE,mg/L,0.239658790921555,0.1,0.4,3
01-004,1,Site 01,2015-01-13,Y,Visit 3,3,2015-06-25,164,Serum,Magnesium,mmol/L,0.738644307823301,0.62,0.99,3
01-004,1,Site 01,2015-01-13,Y,Visit 3,3,2015-06-25,164,Serum,Potassium,mmol/L,4.95024381375327,3.5,5,3
01-004,1,Site 01,2015-01-13,Y,Visit 3,3,2015-06-25,164,Serum,Sodium,mmol/L,,136,145,3
01-004,1,Site 01,2015-01-13,Y,Visit 3,3,2015-06-25,164,Serum,Total Bilirubin,µmol/L,0,5.1,20.5,3
01-004,1,Site 01,2015-01-13,Y,Visit 3,3,2015-06-25,164,Vital Signs,Diastolic Blood Pressure,mmHg,,60,80,3
01-004,1,Site 01,2015-01-13,Y,Visit 3,3,2015-06-25,164,Vital Signs,Heart Rate,beats/minute,,50,80,3
01-004,1,Site 01,2015-01-13,Y,Visit 3,3,2015-06-25,164,Vital Signs,Respiratory Rate,breaths/minute,16.982969326002,16,20,3
01-004,1,Site 01,2015-01-13,Y,Visit 3,3,2015-06-25,164,Vital Signs,Systolic Blood Pressure,mmHg,96.9445120998125,90,120,3
01-004,1,Site 01,2015-01-13,Y,Visit 3,3,2015-06-25,164,Vital Signs,Temperature,°C,36.576165532376,36.6,37,3
01-004,1,Site 01,2015-01-13,Y,Visit 4,4,2015-08-18,218,Blood,Platelet count,x 109/L,238.308943559446,150,350,4
01-004,1,Site 01,2015-01-13,Y,Visit 4,4,2015-08-18,218,Blood,RBC count,x 1012 cells/L,5.27347529713308,4.2,5.9,4
01-004,1,Site 01,2015-01-13,Y,Visit 4,4,2015-08-18,218,Blood,WBC count,x 109 cells/L,7.11957909796345,4.5,11,4
01-004,1,Site 01,2015-01-13,Y,Visit 4,4,2015-08-18,218,Serum,Albumin,g/L,53.1240629475315,35,55,4
01-004,1,Site 01,2015-01-13,Y,Visit 4,4,2015-08-18,218,Serum,Alkaline phosphatase (ALP),µkat/L,1.21455825598498,0.5,1.5,4
01-004,1,Site 01,2015-01-13,Y,Visit 4,4,2015-08-18,218,Serum,"Aminotransferase, alanine (ALT)",pkat/L,0.126134711620434,0,0.58,4
01-004,1,Site 01,2015-01-13,Y,Visit 4,4,2015-08-18,218,Serum,"Aminotransferase, aspartate (AST)",pkat/L,0,0,0.58,4
01-004,1,Site 01,2015-01-13,Y,Visit 4,4,2015-08-18,218,Serum,Calcium,mmol/L,2.58673567408203,2.2,2.6,4
01-004,1,Site 01,2015-01-13,Y,Visit 4,4,2015-08-18,218,Serum,Chloride,mmol/L,99.8579317038002,98,106,4
01-004,1,Site 01,2015-01-13,Y,Visit 4,4,2015-08-18,218,Serum,Creatinine,µmol/L,48.8452337575893,61.9,115,4
01-004,1,Site 01,2015-01-13,Y,Visit 4,4,2015-08-18,218,Serum,Direct Bilirubin,µmol/L,0,0,5.1,4
01-004,1,Site 01,2015-01-13,Y,Visit 4,4,2015-08-18,218,Serum,IgE,mg/L,0.251759179138089,0.1,0.4,4
01-004,1,Site 01,2015-01-13,Y,Visit 4,4,2015-08-18,218,Serum,Magnesium,mmol/L,0.736836695189363,0.62,0.99,4
01-004,1,Site 01,2015-01-13,Y,Visit 4,4,2015-08-18,218,Serum,Potassium,mmol/L,3.64217854868668,3.5,5,4
01-004,1,Site 01,2015-01-13,Y,Visit 4,4,2015-08-18,218,Serum,Sodium,mmol/L,141.284406112428,136,145,4
01-004,1,Site 01,2015-01-13,Y,Visit 4,4,2015-08-18,218,Serum,Total Bilirubin,µmol/L,,5.1,20.5,4
01-004,1,Site 01,2015-01-13,Y,Visit 4,4,2015-08-18,218,Vital Signs,Diastolic Blood Pressure,mmHg,72.9707285992666,60,80,4
01-004,1,Site 01,2015-01-13,Y,Visit 4,4,2015-08-18,218,Vital Signs,Heart Rate,beats/minute,86.3504622830802,50,80,4
01-004,1,Site 01,2015-01-13,Y,Visit 4,4,2015-08-18,218,Vital Signs,Respiratory Rate,breaths/minute,16.7332971021879,16,20,4
01-004,1,Site 01,2015-01-13,Y,Visit 4,4,2015-08-18,218,Vital Signs,Systolic Blood Pressure,mmHg,,90,120,4
01-004,1,Site 01,2015-01-13,Y,Visit 4,4,2015-08-18,218,Vital Signs,Temperature,°C,36.836330812821,36.6,37,4
01-004,1,Site 01,2015-01-13,Y,Visit 5,5,2015-10-19,280,Blood,Platelet count,x 109/L,0,150,350,5
01-004,1,Site 01,2015-01-13,Y,Visit 5,5,2015-10-19,280,Blood,RBC count,x 1012 cells/L,5.21200648761923,4.2,5.9,5
01-004,1,Site 01,2015-01-13,Y,Visit 5,5,2015-10-19,280,Blood,WBC count,x 109 cells/L,,4.5,11,5
01-004,1,Site 01,2015-01-13,Y,Visit 5,5,2015-10-19,280,Serum,Albumin,g/L,54.3894945578406,35,55,5
01-004,1,Site 01,2015-01-13,Y,Visit 5,5,2015-10-19,280,Serum,Alkaline phosphatase (ALP),µkat/L,1.65709631044265,0.5,1.5,5
01-004,1,Site 01,2015-01-13,Y,Visit 5,5,2015-10-19,280,Serum,"Aminotransferase, alanine (ALT)",pkat/L,0.514565723637921,0,0.58,5
01-004,1,Site 01,2015-01-13,Y,Visit 5,5,2015-10-19,280,Serum,"Aminotransferase, aspartate (AST)",pkat/L,0.477310876025826,0,0.58,5
01-004,1,Site 01,2015-01-13,Y,Visit 5,5,2015-10-19,280,Serum,Calcium,mmol/L,2.16582843973285,2.2,2.6,5
01-004,1,Site 01,2015-01-13,Y,Visit 5,5,2015-10-19,280,Serum,Chloride,mmol/L,103.843597691495,98,106,5
01-004,1,Site 01,2015-01-13,Y,Visit 5,5,2015-10-19,280,Serum,Creatinine,µmol/L,126.901555059458,61.9,115,5
01-004,1,Site 01,2015-01-13,Y,Visit 5,5,2015-10-19,280,Serum,Direct Bilirubin,µmol/L,4.207983736782,0,5.1,5
01-004,1,Site 01,2015-01-13,Y,Visit 5,5,2015-10-19,280,Serum,IgE,mg/L,0.353729218975822,0.1,0.4,5
01-004,1,Site 01,2015-01-13,Y,Visit 5,5,2015-10-19,280,Serum,Magnesium,mmol/L,1.02915809609698,0.62,0.99,5
01-004,1,Site 01,2015-01-13,Y,Visit 5,5,2015-10-19,280,Serum,Potassium,mmol/L,,3.5,5,5
01-004,1,Site 01,2015-01-13,Y,Visit 5,5,2015-10-19,280,Serum,Sodium,mmol/L,137.135510386073,136,145,5
01-004,1,Site 01,2015-01-13,Y,Visit 5,5,2015-10-19,280,Serum,Total Bilirubin,µmol/L,8.9710881163771,5.1,20.5,5
01-004,1,Site 01,2015-01-13,Y,Visit 5,5,2015-10-19,280,Vital Signs,Diastolic Blood Pressure,mmHg,82.6927127060728,60,80,5
01-004,1,Site 01,2015-01-13,Y,Visit 5,5,2015-10-19,280,Vital Signs,Heart Rate,beats/minute,75.9949201349765,50,80,5
01-004,1,Site 01,2015-01-13,Y,Visit 5,5,2015-10-19,280,Vital Signs,Respiratory Rate,breaths/minute,16.8071994611498,16,20,5
01-004,1,Site 01,2015-01-13,Y,Visit 5,5,2015-10-19,280,Vital Signs,Systolic Blood Pressure,mmHg,132.721791894596,90,120,5
01-004,1,Site 01,2015-01-13,Y,Visit 5,5,2015-10-19,280,Vital Signs,Temperature,°C,36.8463274719731,36.6,37,5
01-004,1,Site 01,2015-01-13,Y,Visit 6,6,2015-12-20,342,Blood,Platelet count,x 109/L,216.284553912321,150,350,6
01-004,1,Site 01,2015-01-13,Y,Visit 6,6,2015-12-20,342,Blood,RBC count,x 1012 cells/L,,4.2,5.9,6
01-004,1,Site 01,2015-01-13,Y,Visit 6,6,2015-12-20,342,Blood,WBC count,x 109 cells/L,6.13342148543612,4.5,11,6
01-004,1,Site 01,2015-01-13,Y,Visit 6,6,2015-12-20,342,Serum,Albumin,g/L,36.9590520130821,35,55,6
01-004,1,Site 01,2015-01-13,Y,Visit 6,6,2015-12-20,342,Serum,Alkaline phosphatase (ALP),µkat/L,0.948999764057629,0.5,1.5,6
01-004,1,Site 01,2015-01-13,Y,Visit 6,6,2015-12-20,342,Serum,"Aminotransferase, alanine (ALT)",pkat/L,,0,0.58,6
01-004,1,Site 01,2015-01-13,Y,Visit 6,6,2015-12-20,342,Serum,"Aminotransferase, aspartate (AST)",pkat/L,0,0,0.58,6
01-004,1,Site 01,2015-01-13,Y,Visit 6,6,2015-12-20,342,Serum,Calcium,mmol/L,,2.2,2.6,6
01-004,1,Site 01,2015-01-13,Y,Visit 6,6,2015-12-20,342,Serum,Chloride,mmol/L,97.6123935588966,98,106,6
01-004,1,Site 01,2015-01-13,Y,Visit 6,6,2015-12-20,342,Serum,Creatinine,µmol/L,90.5009083217971,61.9,115,6
01-004,1,Site 01,2015-01-13,Y,Visit 6,6,2015-12-20,342,Serum,Direct Bilirubin,µmol/L,4.3127196495773,0,5.1,6
01-004,1,Site 01,2015-01-13,Y,Visit 6,6,2015-12-20,342,Serum,IgE,mg/L,0.276693683976999,0.1,0.4,6
01-004,1,Site 01,2015-01-13,Y,Visit 6,6,2015-12-20,342,Serum,Magnesium,mmol/L,,0.62,0.99,6
01-004,1,Site 01,2015-01-13,Y,Visit 6,6,2015-12-20,342,Serum,Potassium,mmol/L,4.33373649956794,3.5,5,6
01-004,1,Site 01,2015-01-13,Y,Visit 6,6,2015-12-20,342,Serum,Sodium,mmol/L,150.349002965674,136,145,6
01-004,1,Site 01,2015-01-13,Y,Visit 6,6,2015-12-20,342,Serum,Total Bilirubin,µmol/L,0,5.1,20.5,6
01-004,1,Site 01,2015-01-13,Y,Visit 6,6,2015-12-20,342,Vital Signs,Diastolic Blood Pressure,mmHg,83.8835688285987,60,80,6
01-004,1,Site 01,2015-01-13,Y,Visit 6,6,2015-12-20,342,Vital Signs,Heart Rate,beats/minute,55.7146801543175,50,80,6
01-004,1,Site 01,2015-01-13,Y,Visit 6,6,2015-12-20,342,Vital Signs,Respiratory Rate,breaths/minute,22.2648627836147,16,20,6
01-004,1,Site 01,2015-01-13,Y,Visit 6,6,2015-12-20,342,Vital Signs,Systolic Blood Pressure,mmHg,113.624043046493,90,120,6
01-004,1,Site 01,2015-01-13,Y,Visit 6,6,2015-12-20,342,Vital Signs,Temperature,°C,36.7275707711113,36.6,37,6
01-004,1,Site 01,2015-01-13,Y,End of Study,7,2016-01-06,359,Blood,Platelet count,x 109/L,258.512890626098,150,350,7
01-004,1,Site 01,2015-01-13,Y,End of Study,7,2016-01-06,359,Blood,RBC count,x 1012 cells/L,3.69685517204265,4.2,5.9,7
01-004,1,Site 01,2015-01-13,Y,End of Study,7,2016-01-06,359,Blood,WBC count,x 109 cells/L,0,4.5,11,7
01-004,1,Site 01,2015-01-13,Y,End of Study,7,2016-01-06,359,Serum,Albumin,g/L,46.6592031478935,35,55,7
01-004,1,Site 01,2015-01-13,Y,End of Study,7,2016-01-06,359,Serum,Alkaline phosphatase (ALP),µkat/L,0.464565573575409,0.5,1.5,7
01-004,1,Site 01,2015-01-13,Y,End of Study,7,2016-01-06,359,Serum,"Aminotransferase, alanine (ALT)",pkat/L,0.564622629906892,0,0.58,7
01-004,1,Site 01,2015-01-13,Y,End of Study,7,2016-01-06,359,Serum,"Aminotransferase, aspartate (AST)",pkat/L,0.422034523254364,0,0.58,7
01-004,1,Site 01,2015-01-13,Y,End of Study,7,2016-01-06,359,Serum,Calcium,mmol/L,2.42264812295553,2.2,2.6,7
01-004,1,Site 01,2015-01-13,Y,End of Study,7,2016-01-06,359,Serum,Chloride,mmol/L,,98,106,7
01-004,1,Site 01,2015-01-13,Y,End of Study,7,2016-01-06,359,Serum,Creatinine,µmol/L,86.8537171877042,61.9,115,7
01-004,1,Site 01,2015-01-13,Y,End of Study,7,2016-01-06,359,Serum,Direct Bilirubin,µmol/L,,0,5.1,7
01-004,1,Site 01,2015-01-13,Y,End of Study,7,2016-01-06,359,Serum,IgE,mg/L,,0.1,0.4,7
01-004,1,Site 01,2015-01-13,Y,End of Study,7,2016-01-06,359,Serum,Magnesium,mmol/L,1.26566947359882,0.62,0.99,7
01-004,1,Site 01,2015-01-13,Y,End of Study,7,2016-01-06,359,Serum,Potassium,mmol/L,3.62645006890625,3.5,5,7
01-004,1,Site 01,2015-01-13,Y,End of Study,7,2016-01-06,359,Serum,Sodium,mmol/L,133.289752426752,136,145,7
01-004,1,Site 01,2015-01-13,Y,End of Study,7,2016-01-06,359,Serum,Total Bilirubin,µmol/L,11.7745709765117,5.1,20.5,7
01-004,1,Site 01,2015-01-13,Y,End of Study,7,2016-01-06,359,Vital Signs,Diastolic Blood Pressure,mmHg,61.4141146333772,60,80,7
01-004,1,Site 01,2015-01-13,Y,End of Study,7,2016-01-06,359,Vital Signs,Heart Rate,beats/minute,41.3552860587444,50,80,7
01-004,1,Site 01,2015-01-13,Y,End of Study,7,2016-01-06,359,Vital Signs,Respiratory Rate,breaths/minute,15.4365447801892,16,20,7
01-004,1,Site 01,2015-01-13,Y,End of Study,7,2016-01-06,359,Vital Signs,Systolic Blood Pressure,mmHg,84.0513374001112,90,120,7
01-004,1,Site 01,2015-01-13,Y,End of Study,7,2016-01-06,359,Vital Signs,Temperature,°C,36.7193862569198,36.6,37,7
01-005,1,Site 01,2015-12-27,Y,Screening,0,2015-12-27,1,Blood,Platelet count,x 109/L,431.470291242682,150,350,0
01-005,1,Site 01,2015-12-27,Y,Screening,0,2015-12-27,1,Blood,RBC count,x 1012 cells/L,5.89380830215865,4.2,5.9,0
01-005,1,Site 01,2015-12-27,Y,Screening,0,2015-12-27,1,Blood,WBC count,x 109 cells/L,9.87374072117297,4.5,11,0
01-005,1,Site 01,2015-12-27,Y,Screening,0,2015-12-27,1,Serum,Albumin,g/L,31.9224806882721,35,55,0
01-005,1,Site 01,2015-12-27,Y,Screening,0,2015-12-27,1,Serum,Alkaline phosphatase (ALP),µkat/L,,0.5,1.5,0
01-005,1,Site 01,2015-12-27,Y,Screening,0,2015-12-27,1,Serum,"Aminotransferase, alanine (ALT)",pkat/L,0,0,0.58,0
01-005,1,Site 01,2015-12-27,Y,Screening,0,2015-12-27,1,Serum,"Aminotransferase, aspartate (AST)",pkat/L,,0,0.58,0
01-005,1,Site 01,2015-12-27,Y,Screening,0,2015-12-27,1,Serum,Calcium,mmol/L,2.4785428667719,2.2,2.6,0
01-005,1,Site 01,2015-12-27,Y,Screening,0,2015-12-27,1,Serum,Chloride,mmol/L,103.70826645931,98,106,0
01-005,1,Site 01,2015-12-27,Y,Screening,0,2015-12-27,1,Serum,Creatinine,µmol/L,99.1317793847082,61.9,115,0
01-005,1,Site 01,2015-12-27,Y,Screening,0,2015-12-27,1,Serum,Direct Bilirubin,µmol/L,1.16626912331543,0,5.1,0
01-005,1,Site 01,2015-12-27,Y,Screening,0,2015-12-27,1,Serum,IgE,mg/L,0.0184098050722344,0.1,0.4,0
01-005,1,Site 01,2015-12-27,Y,Screening,0,2015-12-27,1,Serum,Magnesium,mmol/L,0.966975364660916,0.62,0.99,0
01-005,1,Site 01,2015-12-27,Y,Screening,0,2015-12-27,1,Serum,Potassium,mmol/L,3.8832282243051,3.5,5,0
01-005,1,Site 01,2015-12-27,Y,Screening,0,2015-12-27,1,Serum,Sodium,mmol/L,145.515080234843,136,145,0
01-005,1,Site 01,2015-12-27,Y,Screening,0,2015-12-27,1,Serum,Total Bilirubin,µmol/L,12.020172219768,5.1,20.5,0
01-005,1,Site 01,2015-12-27,Y,Screening,0,2015-12-27,1,Vital Signs,Diastolic Blood Pressure,mmHg,61.7703165139258,60,80,0
01-005,1,Site 01,2015-12-27,Y,Screening,0,2015-12-27,1,Vital Signs,Heart Rate,beats/minute,53.0253036905665,50,80,0
01-005,1,Site 01,2015-12-27,Y,Screening,0,2015-12-27,1,Vital Signs,Respiratory Rate,breaths/minute,15.2619712760887,16,20,0
01-005,1,Site 01,2015-12-27,Y,Screening,0,2015-12-27,1,Vital Signs,Systolic Blood Pressure,mmHg,120.336391649743,90,120,0
01-005,1,Site 01,2015-12-27,Y,Screening,0,2015-12-27,1,Vital Signs,Temperature,°C,36.4899725578164,36.6,37,0
01-005,1,Site 01,2015-12-27,Y,Visit 1,1,2016-02-16,52,Blood,Platelet count,x 109/L,212.212417297338,150,350,1
01-005,1,Site 01,2015-12-27,Y,Visit 1,1,2016-02-16,52,Blood,RBC count,x 1012 cells/L,6.77643184224803,4.2,5.9,1
01-005,1,Site 01,2015-12-27,Y,Visit 1,1,2016-02-16,52,Blood,WBC count,x 109 cells/L,0,4.5,11,1
01-005,1,Site 01,2015-12-27,Y,Visit 1,1,2016-02-16,52,Serum,Albumin,g/L,62.7704896671837,35,55,1
01-005,1,Site 01,2015-12-27,Y,Visit 1,1,2016-02-16,52,Serum,Alkaline phosphatase (ALP),µkat/L,1.1291750752376,0.5,1.5,1
01-005,1,Site 01,2015-12-27,Y,Visit 1,1,2016-02-16,52,Serum,"Aminotransferase, alanine (ALT)",pkat/L,0.0529644795664716,0,0.58,1
01-005,1,Site 01,2015-12-27,Y,Visit 1,1,2016-02-16,52,Serum,"Aminotransferase, aspartate (AST)",pkat/L,0.212785525067134,0,0.58,1
01-005,1,Site 01,2015-12-27,Y,Visit 1,1,2016-02-16,52,Serum,Calcium,mmol/L,2.48938014653804,2.2,2.6,1
01-005,1,Site 01,2015-12-27,Y,Visit 1,1,2016-02-16,52,Serum,Chloride,mmol/L,,98,106,1
01-005,1,Site 01,2015-12-27,Y,Visit 1,1,2016-02-16,52,Serum,Creatinine,µmol/L,156.562788692177,61.9,115,1
01-005,1,Site 01,2015-12-27,Y,Visit 1,1,2016-02-16,52,Serum,Direct Bilirubin,µmol/L,7.93967017443995,0,5.1,1
01-005,1,Site 01,2015-12-27,Y,Visit 1,1,2016-02-16,52,Serum,IgE,mg/L,0.319070861636469,0.1,0.4,1
01-005,1,Site 01,2015-12-27,Y,Visit 1,1,2016-02-16,52,Serum,Magnesium,mmol/L,0.62474631601116,0.62,0.99,1
01-005,1,Site 01,2015-12-27,Y,Visit 1,1,2016-02-16,52,Serum,Potassium,mmol/L,5.05073688520751,3.5,5,1
01-005,1,Site 01,2015-12-27,Y,Visit 1,1,2016-02-16,52,Serum,Sodium,mmol/L,142.207668825573,136,145,1
01-005,1,Site 01,2015-12-27,Y,Visit 1,1,2016-02-16,52,Serum,Total Bilirubin,µmol/L,9.958007593502,5.1,20.5,1
01-005,1,Site 01,2015-12-27,Y,Visit 1,1,2016-02-16,52,Vital Signs,Diastolic Blood Pressure,mmHg,76.251268588584,60,80,1
01-005,1,Site 01,2015-12-27,Y,Visit 1,1,2016-02-16,52,Vital Signs,Heart Rate,beats/minute,67.052608467864,50,80,1
01-005,1,Site 01,2015-12-27,Y,Visit 1,1,2016-02-16,52,Vital Signs,Respiratory Rate,breaths/minute,16.091451041722,16,20,1
01-005,1,Site 01,2015-12-27,Y,Visit 1,1,2016-02-16,52,Vital Signs,Systolic Blood Pressure,mmHg,87.1976476611926,90,120,1
01-005,1,Site 01,2015-12-27,Y,Visit 1,1,2016-02-16,52,Vital Signs,Temperature,°C,36.7595751158045,36.6,37,1
01-005,1,Site 01,2015-12-27,Y,Visit 2,2,2016-04-09,105,Blood,Platelet count,x 109/L,193.264743519251,150,350,2
01-005,1,Site 01,2015-12-27,Y,Visit 2,2,2016-04-09,105,Blood,RBC count,x 1012 cells/L,5.40256148727941,4.2,5.9,2
01-005,1,Site 01,2015-12-27,Y,Visit 2,2,2016-04-09,105,Blood,WBC count,x 109 cells/L,7.41331229739558,4.5,11,2
01-005,1,Site 01,2015-12-27,Y,Visit 2,2,2016-04-09,105,Serum,Albumin,g/L,41.770123326536,35,55,2
01-005,1,Site 01,2015-12-27,Y,Visit 2,2,2016-04-09,105,Serum,Alkaline phosphatase (ALP),µkat/L,0.743069707664586,0.5,1.5,2
01-005,1,Site 01,2015-12-27,Y,Visit 2,2,2016-04-09,105,Serum,"Aminotransferase, alanine (ALT)",pkat/L,0,0,0.58,2
01-005,1,Site 01,2015-12-27,Y,Visit 2,2,2016-04-09,105,Serum,"Aminotransferase, aspartate (AST)",pkat/L,0.864532231650458,0,0.58,2
01-005,1,Site 01,2015-12-27,Y,Visit 2,2,2016-04-09,105,Serum,Calcium,mmol/L,2.5264238637118,2.2,2.6,2
01-005,1,Site 01,2015-12-27,Y,Visit 2,2,2016-04-09,105,Serum,Chloride,mmol/L,102.894195951989,98,106,2
01-005,1,Site 01,2015-12-27,Y,Visit 2,2,2016-04-09,105,Serum,Creatinine,µmol/L,107.717021037046,61.9,115,2
01-005,1,Site 01,2015-12-27,Y,Visit 2,2,2016-04-09,105,Serum,Direct Bilirubin,µmol/L,2.52923831111465,0,5.1,2
01-005,1,Site 01,2015-12-27,Y,Visit 2,2,2016-04-09,105,Serum,IgE,mg/L,0.0892024782080367,0.1,0.4,2
01-005,1,Site 01,2015-12-27,Y,Visit 2,2,2016-04-09,105,Serum,Magnesium,mmol/L,0.749093467854069,0.62,0.99,2
01-005,1,Site 01,2015-12-27,Y,Visit 2,2,2016-04-09,105,Serum,Potassium,mmol/L,4.16148502271027,3.5,5,2
01-005,1,Site 01,2015-12-27,Y,Visit 2,2,2016-04-09,105,Serum,Sodium,mmol/L,146.818505455539,136,145,2
01-005,1,Site 01,2015-12-27,Y,Visit 2,2,2016-04-09,105,Serum,Total Bilirubin,µmol/L,10.1893285057101,5.1,20.5,2
01-005,1,Site 01,2015-12-27,Y,Visit 2,2,2016-04-09,105,Vital Signs,Diastolic Blood Pressure,mmHg,,60,80,2
01-005,1,Site 01,2015-12-27,Y,Visit 2,2,2016-04-09,105,Vital Signs,Heart Rate,beats/minute,55.2396895981589,50,80,2
01-005,1,Site 01,2015-12-27,Y,Visit 2,2,2016-04-09,105,Vital Signs,Respiratory Rate,breaths/minute,18.5718295566261,16,20,2
01-005,1,Site 01,2015-12-27,Y,Visit 2,2,2016-04-09,105,Vital Signs,Systolic Blood Pressure,mmHg,114.432496112261,90,120,2
01-005,1,Site 01,2015-12-27,Y,Visit 2,2,2016-04-09,105,Vital Signs,Temperature,°C,36.7990446525921,36.6,37,2
01-005,1,Site 01,2015-12-27,Y,Unscheduled 2.1,2.1,2016-04-17,113,Blood,Platelet count,x 109/L,,150,350,2.1
01-005,1,Site 01,2015-12-27,Y,Unscheduled 2.1,2.1,2016-04-17,113,Blood,RBC count,x 1012 cells/L,,4.2,5.9,2.1
01-005,1,Site 01,2015-12-27,Y,Unscheduled 2.1,2.1,2016-04-17,113,Blood,WBC count,x 109 cells/L,1.1053062983609,4.5,11,2.1
01-005,1,Site 01,2015-12-27,Y,Unscheduled 2.1,2.1,2016-04-17,113,Serum,Albumin,g/L,34.0695696820422,35,55,2.1
01-005,1,Site 01,2015-12-27,Y,Unscheduled 2.1,2.1,2016-04-17,113,Serum,Alkaline phosphatase (ALP),µkat/L,0.883680297467633,0.5,1.5,2.1
01-005,1,Site 01,2015-12-27,Y,Unscheduled 2.1,2.1,2016-04-17,113,Serum,"Aminotransferase, alanine (ALT)",pkat/L,,0,0.58,2.1
01-005,1,Site 01,2015-12-27,Y,Unscheduled 2.1,2.1,2016-04-17,113,Serum,"Aminotransferase, aspartate (AST)",pkat/L,0,0,0.58,2.1
01-005,1,Site 01,2015-12-27,Y,Unscheduled 2.1,2.1,2016-04-17,113,Serum,Calcium,mmol/L,2.69992165386756,2.2,2.6,2.1
01-005,1,Site 01,2015-12-27,Y,Unscheduled 2.1,2.1,2016-04-17,113,Serum,Chloride,mmol/L,104.785726155518,98,106,2.1
01-005,1,Site 01,2015-12-27,Y,Unscheduled 2.1,2.1,2016-04-17,113,Serum,Creatinine,µmol/L,104.926316816877,61.9,115,2.1
01-005,1,Site 01,2015-12-27,Y,Unscheduled 2.1,2.1,2016-04-17,113,Serum,Direct Bilirubin,µmol/L,2.06066124391447,0,5.1,2.1
01-005,1,Site 01,2015-12-27,Y,Unscheduled 2.1,2.1,2016-04-17,113,Serum,IgE,mg/L,0.242184965149434,0.1,0.4,2.1
01-005,1,Site 01,2015-12-27,Y,Unscheduled 2.1,2.1,2016-04-17,113,Serum,Magnesium,mmol/L,0.693149750412546,0.62,0.99,2.1
01-005,1,Site 01,2015-12-27,Y,Unscheduled 2.1,2.1,2016-04-17,113,Serum,Potassium,mmol/L,4.19791892847221,3.5,5,2.1
01-005,1,Site 01,2015-12-27,Y,Unscheduled 2.1,2.1,2016-04-17,113,Serum,Sodium,mmol/L,138.764497975025,136,145,2.1
01-005,1,Site 01,2015-12-27,Y,Unscheduled 2.1,2.1,2016-04-17,113,Serum,Total Bilirubin,µmol/L,9.08531050907173,5.1,20.5,2.1
01-005,1,Site 01,2015-12-27,Y,Unscheduled 2.1,2.1,2016-04-17,113,Vital Signs,Diastolic Blood Pressure,mmHg,69.7778728154384,60,80,2.1
01-005,1,Site 01,2015-12-27,Y,Unscheduled 2.1,2.1,2016-04-17,113,Vital Signs,Heart Rate,beats/minute,73.0121755363804,50,80,2.1
01-005,1,Site 01,2015-12-27,Y,Unscheduled 2.1,2.1,2016-04-17,113,Vital Signs,Respiratory Rate,breaths/minute,19.3186901839646,16,20,2.1
01-005,1,Site 01,2015-12-27,Y,Unscheduled 2.1,2.1,2016-04-17,113,Vital Signs,Systolic Blood Pressure,mmHg,94.8776637110145,90,120,2.1
01-005,1,Site 01,2015-12-27,Y,Unscheduled 2.1,2.1,2016-04-17,113,Vital Signs,Temperature,°C,36.566516650551,36.6,37,2.1
01-005,1,Site 01,2015-12-27,Y,Visit 3,3,2016-06-08,165,Blood,Platelet count,x 109/L,410.713867470723,150,350,3
01-005,1,Site 01,2015-12-27,Y,Visit 3,3,2016-06-08,165,Blood,RBC count,x 1012 cells/L,5.86360213775319,4.2,5.9,3
01-005,1,Site 01,2015-12-27,Y,Visit 3,3,2016-06-08,165,Blood,WBC count,x 109 cells/L,6.80849666657397,4.5,11,3
01-005,1,Site 01,2015-12-27,Y,Visit 3,3,2016-06-08,165,Serum,Albumin,g/L,67.7539100597369,35,55,3
01-005,1,Site 01,2015-12-27,Y,Visit 3,3,2016-06-08,165,Serum,Alkaline phosphatase (ALP),µkat/L,0.570596470184501,0.5,1.5,3
01-005,1,Site 01,2015-12-27,Y,Visit 3,3,2016-06-08,165,Serum,"Aminotransferase, alanine (ALT)",pkat/L,0.385025255383159,0,0.58,3
01-005,1,Site 01,2015-12-27,Y,Visit 3,3,2016-06-08,165,Serum,"Aminotransferase, aspartate (AST)",pkat/L,0.420814253598491,0,0.58,3
01-005,1,Site 01,2015-12-27,Y,Visit 3,3,2016-06-08,165,Serum,Calcium,mmol/L,2.16916295930105,2.2,2.6,3
01-005,1,Site 01,2015-12-27,Y,Visit 3,3,2016-06-08,165,Serum,Chloride,mmol/L,105.391455457908,98,106,3
01-005,1,Site 01,2015-12-27,Y,Visit 3,3,2016-06-08,165,Serum,Creatinine,µmol/L,77.822806823506,61.9,115,3
01-005,1,Site 01,2015-12-27,Y,Visit 3,3,2016-06-08,165,Serum,Direct Bilirubin,µmol/L,6.95300861549477,0,5.1,3
01-005,1,Site 01,2015-12-27,Y,Visit 3,3,2016-06-08,165,Serum,IgE,mg/L,0.207513431059913,0.1,0.4,3
01-005,1,Site 01,2015-12-27,Y,Visit 3,3,2016-06-08,165,Serum,Magnesium,mmol/L,0.884502726300536,0.62,0.99,3
01-005,1,Site 01,2015-12-27,Y,Visit 3,3,2016-06-08,165,Serum,Potassium,mmol/L,3.98787386785207,3.5,5,3
01-005,1,Site 01,2015-12-27,Y,Visit 3,3,2016-06-08,165,Serum,Sodium,mmol/L,,136,145,3
01-005,1,Site 01,2015-12-27,Y,Visit 3,3,2016-06-08,165,Serum,Total Bilirubin,µmol/L,16.2720728083717,5.1,20.5,3
01-005,1,Site 01,2015-12-27,Y,Visit 3,3,2016-06-08,165,Vital Signs,Diastolic Blood Pressure,mmHg,,60,80,3
01-005,1,Site 01,2015-12-27,Y,Visit 3,3,2016-06-08,165,Vital Signs,Heart Rate,beats/minute,,50,80,3
01-005,1,Site 01,2015-12-27,Y,Visit 3,3,2016-06-08,165,Vital Signs,Respiratory Rate,breaths/minute,18.7830987683227,16,20,3
01-005,1,Site 01,2015-12-27,Y,Visit 3,3,2016-06-08,165,Vital Signs,Systolic Blood Pressure,mmHg,112.584386280902,90,120,3
01-005,1,Site 01,2015-12-27,Y,Visit 3,3,2016-06-08,165,Vital Signs,Temperature,°C,37.0693733653276,36.6,37,3
01-005,1,Site 01,2015-12-27,Y,Visit 4,4,2016-07-31,218,Blood,Platelet count,x 109/L,101.902431807224,150,350,4
01-005,1,Site 01,2015-12-27,Y,Visit 4,4,2016-07-31,218,Blood,RBC count,x 1012 cells/L,5.73475761065811,4.2,5.9,4
01-005,1,Site 01,2015-12-27,Y,Visit 4,4,2016-07-31,218,Blood,WBC count,x 109 cells/L,8.65689839579431,4.5,11,4
01-005,1,Site 01,2015-12-27,Y,Visit 4,4,2016-07-31,218,Serum,Albumin,g/L,44.2679976221984,35,55,4
01-005,1,Site 01,2015-12-27,Y,Visit 4,4,2016-07-31,218,Serum,Alkaline phosphatase (ALP),µkat/L,0.594447287900278,0.5,1.5,4
01-005,1,Site 01,2015-12-27,Y,Visit 4,4,2016-07-31,218,Serum,"Aminotransferase, alanine (ALT)",pkat/L,0,0,0.58,4
01-005,1,Site 01,2015-12-27,Y,Visit 4,4,2016-07-31,218,Serum,"Aminotransferase, aspartate (AST)",pkat/L,0.0199233255203901,0,0.58,4
01-005,1,Site 01,2015-12-27,Y,Visit 4,4,2016-07-31,218,Serum,Calcium,mmol/L,2.44335286185041,2.2,2.6,4
01-005,1,Site 01,2015-12-27,Y,Visit 4,4,2016-07-31,218,Serum,Chloride,mmol/L,100.326867032817,98,106,4
01-005,1,Site 01,2015-12-27,Y,Visit 4,4,2016-07-31,218,Serum,Creatinine,µmol/L,106.842054435848,61.9,115,4
01-005,1,Site 01,2015-12-27,Y,Visit 4,4,2016-07-31,218,Serum,Direct Bilirubin,µmol/L,0.751279607127888,0,5.1,4
01-005,1,Site 01,2015-12-27,Y,Visit 4,4,2016-07-31,218,Serum,IgE,mg/L,0.246693151314451,0.1,0.4,4
01-005,1,Site 01,2015-12-27,Y,Visit 4,4,2016-07-31,218,Serum,Magnesium,mmol/L,0.482032557174775,0.62,0.99,4
01-005,1,Site 01,2015-12-27,Y,Visit 4,4,2016-07-31,218,Serum,Potassium,mmol/L,,3.5,5,4
01-005,1,Site 01,2015-12-27,Y,Visit 4,4,2016-07-31,218,Serum,Sodium,mmol/L,143.947859638614,136,145,4
01-005,1,Site 01,2015-12-27,Y,Visit 4,4,2016-07-31,218,Serum,Total Bilirubin,µmol/L,,5.1,20.5,4
01-005,1,Site 01,2015-12-27,Y,Visit 4,4,2016-07-31,218,Vital Signs,Diastolic Blood Pressure,mmHg,58.484548003058,60,80,4
01-005,1,Site 01,2015-12-27,Y,Visit 4,4,2016-07-31,218,Vital Signs,Heart Rate,beats/minute,76.766232723959,50,80,4
01-005,1,Site 01,2015-12-27,Y,Visit 4,4,2016-07-31,218,Vital Signs,Respiratory Rate,breaths/minute,17.4637669722836,16,20,4
01-005,1,Site 01,2015-12-27,Y,Visit 4,4,2016-07-31,218,Vital Signs,Systolic Blood Pressure,mmHg,,90,120,4
01-005,1,Site 01,2015-12-27,Y,Visit 4,4,2016-07-31,218,Vital Signs,Temperature,°C,36.9223174671207,36.6,37,4
01-005,1,Site 01,2015-12-27,Y,Visit 5,5,2016-09-24,273,Blood,Platelet count,x 109/L,163.682096140391,150,350,5
01-005,1,Site 01,2015-12-27,Y,Visit 5,5,2016-09-24,273,Blood,RBC count,x 1012 cells/L,4.44238143483607,4.2,5.9,5
01-005,1,Site 01,2015-12-27,Y,Visit 5,5,2016-09-24,273,Blood,WBC count,x 109 cells/L,,4.5,11,5
01-005,1,Site 01,2015-12-27,Y,Visit 5,5,2016-09-24,273,Serum,Albumin,g/L,46.2494087116436,35,55,5
01-005,1,Site 01,2015-12-27,Y,Visit 5,5,2016-09-24,273,Serum,Alkaline phosphatase (ALP),µkat/L,1.82176016616302,0.5,1.5,5
01-005,1,Site 01,2015-12-27,Y,Visit 5,5,2016-09-24,273,Serum,"Aminotransferase, alanine (ALT)",pkat/L,0.311294823612392,0,0.58,5
01-005,1,Site 01,2015-12-27,Y,Visit 5,5,2016-09-24,273,Serum,"Aminotransferase, aspartate (AST)",pkat/L,0.388562675836453,0,0.58,5
01-005,1,Site 01,2015-12-27,Y,Visit 5,5,2016-09-24,273,Serum,Calcium,mmol/L,2.20374530638529,2.2,2.6,5
01-005,1,Site 01,2015-12-27,Y,Visit 5,5,2016-09-24,273,Serum,Chloride,mmol/L,103.045394019221,98,106,5
01-005,1,Site 01,2015-12-27,Y,Visit 5,5,2016-09-24,273,Serum,Creatinine,µmol/L,117.897265593463,61.9,115,5
01-005,1,Site 01,2015-12-27,Y,Visit 5,5,2016-09-24,273,Serum,Direct Bilirubin,µmol/L,0.852184700165432,0,5.1,5
01-005,1,Site 01,2015-12-27,Y,Visit 5,5,2016-09-24,273,Serum,IgE,mg/L,0.482628530516524,0.1,0.4,5
01-005,1,Site 01,2015-12-27,Y,Visit 5,5,2016-09-24,273,Serum,Magnesium,mmol/L,0.519797179867912,0.62,0.99,5
01-005,1,Site 01,2015-12-27,Y,Visit 5,5,2016-09-24,273,Serum,Potassium,mmol/L,,3.5,5,5
01-005,1,Site 01,2015-12-27,Y,Visit 5,5,2016-09-24,273,Serum,Sodium,mmol/L,141.534453300143,136,145,5
01-005,1,Site 01,2015-12-27,Y,Visit 5,5,2016-09-24,273,Serum,Total Bilirubin,µmol/L,14.0207921622965,5.1,20.5,5
01-005,1,Site 01,2015-12-27,Y,Visit 5,5,2016-09-24,273,Vital Signs,Diastolic Blood Pressure,mmHg,64.8459732894983,60,80,5
01-005,1,Site 01,2015-12-27,Y,Visit 5,5,2016-09-24,273,Vital Signs,Heart Rate,beats/minute,58.4765599885773,50,80,5
01-005,1,Site 01,2015-12-27,Y,Visit 5,5,2016-09-24,273,Vital Signs,Respiratory Rate,breaths/minute,20.5869778828831,16,20,5
01-005,1,Site 01,2015-12-27,Y,Visit 5,5,2016-09-24,273,Vital Signs,Systolic Blood Pressure,mmHg,116.720252183881,90,120,5
01-005,1,Site 01,2015-12-27,Y,Visit 5,5,2016-09-24,273,Vital Signs,Temperature,°C,36.9084816343512,36.6,37,5
01-005,1,Site 01,2015-12-27,Y,Visit 6,6,2016-11-28,338,Blood,Platelet count,x 109/L,376.397681773702,150,350,6
01-005,1,Site 01,2015-12-27,Y,Visit 6,6,2016-11-28,338,Blood,RBC count,x 1012 cells/L,,4.2,5.9,6
01-005,1,Site 01,2015-12-27,Y,Visit 6,6,2016-11-28,338,Blood,WBC count,x 109 cells/L,8.88523719387585,4.5,11,6
01-005,1,Site 01,2015-12-27,Y,Visit 6,6,2016-11-28,338,Serum,Albumin,g/L,52.2372984482254,35,55,6
01-005,1,Site 01,2015-12-27,Y,Visit 6,6,2016-11-28,338,Serum,Alkaline phosphatase (ALP),µkat/L,1.42889507181819,0.5,1.5,6
01-005,1,Site 01,2015-12-27,Y,Visit 6,6,2016-11-28,338,Serum,"Aminotransferase, alanine (ALT)",pkat/L,,0,0.58,6
01-005,1,Site 01,2015-12-27,Y,Visit 6,6,2016-11-28,338,Serum,"Aminotransferase, aspartate (AST)",pkat/L,0.548886614267895,0,0.58,6
01-005,1,Site 01,2015-12-27,Y,Visit 6,6,2016-11-28,338,Serum,Calcium,mmol/L,,2.2,2.6,6
01-005,1,Site 01,2015-12-27,Y,Visit 6,6,2016-11-28,338,Serum,Chloride,mmol/L,106.603298203916,98,106,6
01-005,1,Site 01,2015-12-27,Y,Visit 6,6,2016-11-28,338,Serum,Creatinine,µmol/L,69.0643424462765,61.9,115,6
01-005,1,Site 01,2015-12-27,Y,Visit 6,6,2016-11-28,338,Serum,Direct Bilirubin,µmol/L,2.43592542381113,0,5.1,6
01-005,1,Site 01,2015-12-27,Y,Visit 6,6,2016-11-28,338,Serum,IgE,mg/L,0.256154268477539,0.1,0.4,6
01-005,1,Site 01,2015-12-27,Y,Visit 6,6,2016-11-28,338,Serum,Magnesium,mmol/L,,0.62,0.99,6
01-005,1,Site 01,2015-12-27,Y,Visit 6,6,2016-11-28,338,Serum,Potassium,mmol/L,5.17611180251673,3.5,5,6
01-005,1,Site 01,2015-12-27,Y,Visit 6,6,2016-11-28,338,Serum,Sodium,mmol/L,142.724729492547,136,145,6
01-005,1,Site 01,2015-12-27,Y,Visit 6,6,2016-11-28,338,Serum,Total Bilirubin,µmol/L,20.5789994655609,5.1,20.5,6
01-005,1,Site 01,2015-12-27,Y,Visit 6,6,2016-11-28,338,Vital Signs,Diastolic Blood Pressure,mmHg,59.5037333310525,60,80,6
01-005,1,Site 01,2015-12-27,Y,Visit 6,6,2016-11-28,338,Vital Signs,Heart Rate,beats/minute,53.1396012219611,50,80,6
01-005,1,Site 01,2015-12-27,Y,Visit 6,6,2016-11-28,338,Vital Signs,Respiratory Rate,breaths/minute,15.1325210543095,16,20,6
01-005,1,Site 01,2015-12-27,Y,Visit 6,6,2016-11-28,338,Vital Signs,Systolic Blood Pressure,mmHg,98.2069914982695,90,120,6
01-005,1,Site 01,2015-12-27,Y,Visit 6,6,2016-11-28,338,Vital Signs,Temperature,°C,36.7820826862631,36.6,37,6
01-005,1,Site 01,2015-12-27,Y,End of Study,7,2017-01-03,374,Blood,Platelet count,x 109/L,180.925780254354,150,350,7
01-005,1,Site 01,2015-12-27,Y,End of Study,7,2017-01-03,374,Blood,RBC count,x 1012 cells/L,4.93054192968877,4.2,5.9,7
01-005,1,Site 01,2015-12-27,Y,End of Study,7,2017-01-03,374,Blood,WBC count,x 109 cells/L,8.79824137316978,4.5,11,7
01-005,1,Site 01,2015-12-27,Y,End of Study,7,2017-01-03,374,Serum,Albumin,g/L,28.6344783877293,35,55,7
01-005,1,Site 01,2015-12-27,Y,End of Study,7,2017-01-03,374,Serum,Alkaline phosphatase (ALP),µkat/L,1.0905752142374,0.5,1.5,7
01-005,1,Site 01,2015-12-27,Y,End of Study,7,2017-01-03,374,Serum,"Aminotransferase, alanine (ALT)",pkat/L,0.505160956837904,0,0.58,7
01-005,1,Site 01,2015-12-27,Y,End of Study,7,2017-01-03,374,Serum,"Aminotransferase, aspartate (AST)",pkat/L,0.338429760887228,0,0.58,7
01-005,1,Site 01,2015-12-27,Y,End of Study,7,2017-01-03,374,Serum,Calcium,mmol/L,2.40505512529952,2.2,2.6,7
01-005,1,Site 01,2015-12-27,Y,End of Study,7,2017-01-03,374,Serum,Chloride,mmol/L,,98,106,7
01-005,1,Site 01,2015-12-27,Y,End of Study,7,2017-01-03,374,Serum,Creatinine,µmol/L,,61.9,115,7
01-005,1,Site 01,2015-12-27,Y,End of Study,7,2017-01-03,374,Serum,Direct Bilirubin,µmol/L,,0,5.1,7
01-005,1,Site 01,2015-12-27,Y,End of Study,7,2017-01-03,374,Serum,IgE,mg/L,0.132878364687157,0.1,0.4,7
01-005,1,Site 01,2015-12-27,Y,End of Study,7,2017-01-03,374,Serum,Magnesium,mmol/L,0.758924657045009,0.62,0.99,7
01-005,1,Site 01,2015-12-27,Y,End of Study,7,2017-01-03,374,Serum,Potassium,mmol/L,4.78787897183714,3.5,5,7
01-005,1,Site 01,2015-12-27,Y,End of Study,7,2017-01-03,374,Serum,Sodium,mmol/L,144.361391918282,136,145,7
01-005,1,Site 01,2015-12-27,Y,End of Study,7,2017-01-03,374,Serum,Total Bilirubin,µmol/L,8.82997313537612,5.1,20.5,7
01-005,1,Site 01,2015-12-27,Y,End of Study,7,2017-01-03,374,Vital Signs,Diastolic Blood Pressure,mmHg,76.6267493055624,60,80,7
01-005,1,Site 01,2015-12-27,Y,End of Study,7,2017-01-03,374,Vital Signs,Heart Rate,beats/minute,42.0966641093789,50,80,7
01-005,1,Site 01,2015-12-27,Y,End of Study,7,2017-01-03,374,Vital Signs,Respiratory Rate,breaths/minute,16.9815548639506,16,20,7
01-005,1,Site 01,2015-12-27,Y,End of Study,7,2017-01-03,374,Vital Signs,Systolic Blood Pressure,mmHg,94.3841647025199,90,120,7
01-005,1,Site 01,2015-12-27,Y,End of Study,7,2017-01-03,374,Vital Signs,Temperature,°C,37.0889197240402,36.6,37,7
01-006,1,Site 01,2015-05-12,N,,,,,,,,,,,
01-007,1,Site 01,2015-09-11,N,,,,,,,,,,,
01-008,1,Site 01,2015-02-14,Y,Screening,0,2015-02-14,1,Blood,Platelet count,x 109/L,118.482590945629,150,350,0
01-008,1,Site 01,2015-02-14,Y,Screening,0,2015-02-14,1,Blood,RBC count,x 1012 cells/L,3.64734340225825,4.2,5.9,0
01-008,1,Site 01,2015-02-14,Y,Screening,0,2015-02-14,1,Blood,WBC count,x 109 cells/L,6.28152321185565,4.5,11,0
01-008,1,Site 01,2015-02-14,Y,Screening,0,2015-02-14,1,Serum,Albumin,g/L,38.9639464810801,35,55,0
01-008,1,Site 01,2015-02-14,Y,Screening,0,2015-02-14,1,Serum,Alkaline phosphatase (ALP),µkat/L,,0.5,1.5,0
01-008,1,Site 01,2015-02-14,Y,Screening,0,2015-02-14,1,Serum,"Aminotransferase, alanine (ALT)",pkat/L,0.0616805765709209,0,0.58,0
01-008,1,Site 01,2015-02-14,Y,Screening,0,2015-02-14,1,Serum,"Aminotransferase, aspartate (AST)",pkat/L,0.766332699980969,0,0.58,0
01-008,1,Site 01,2015-02-14,Y,Screening,0,2015-02-14,1,Serum,Calcium,mmol/L,2.80480833046183,2.2,2.6,0
01-008,1,Site 01,2015-02-14,Y,Screening,0,2015-02-14,1,Serum,Chloride,mmol/L,107.825598319221,98,106,0
01-008,1,Site 01,2015-02-14,Y,Screening,0,2015-02-14,1,Serum,Creatinine,µmol/L,29.6583969379298,61.9,115,0
01-008,1,Site 01,2015-02-14,Y,Screening,0,2015-02-14,1,Serum,Direct Bilirubin,µmol/L,2.68005618994082,0,5.1,0
01-008,1,Site 01,2015-02-14,Y,Screening,0,2015-02-14,1,Serum,IgE,mg/L,0.111156173785332,0.1,0.4,0
01-008,1,Site 01,2015-02-14,Y,Screening,0,2015-02-14,1,Serum,Magnesium,mmol/L,0.632551373510518,0.62,0.99,0
01-008,1,Site 01,2015-02-14,Y,Screening,0,2015-02-14,1,Serum,Potassium,mmol/L,3.81346742558466,3.5,5,0
01-008,1,Site 01,2015-02-14,Y,Screening,0,2015-02-14,1,Serum,Sodium,mmol/L,140.084922075062,136,145,0
01-008,1,Site 01,2015-02-14,Y,Screening,0,2015-02-14,1,Serum,Total Bilirubin,µmol/L,10.4150956062608,5.1,20.5,0
01-008,1,Site 01,2015-02-14,Y,Screening,0,2015-02-14,1,Vital Signs,Diastolic Blood Pressure,mmHg,71.8539146781045,60,80,0
01-008,1,Site 01,2015-02-14,Y,Screening,0,2015-02-14,1,Vital Signs,Heart Rate,beats/minute,78.0041839865597,50,80,0
01-008,1,Site 01,2015-02-14,Y,Screening,0,2015-02-14,1,Vital Signs,Respiratory Rate,breaths/minute,15.5699076185724,16,20,0
01-008,1,Site 01,2015-02-14,Y,Screening,0,2015-02-14,1,Vital Signs,Systolic Blood Pressure,mmHg,98.9959950753849,90,120,0
01-008,1,Site 01,2015-02-14,Y,Screening,0,2015-02-14,1,Vital Signs,Temperature,°C,36.8292860801983,36.6,37,0
01-008,1,Site 01,2015-02-14,Y,Visit 1,1,2015-04-05,51,Blood,Platelet count,x 109/L,456.678225274279,150,350,1
01-008,1,Site 01,2015-02-14,Y,Visit 1,1,2015-04-05,51,Blood,RBC count,x 1012 cells/L,4.8080472333965,4.2,5.9,1
01-008,1,Site 01,2015-02-14,Y,Visit 1,1,2015-04-05,51,Blood,WBC count,x 109 cells/L,7.95824970996229,4.5,11,1
01-008,1,Site 01,2015-02-14,Y,Visit 1,1,2015-04-05,51,Serum,Albumin,g/L,61.0974076374578,35,55,1
01-008,1,Site 01,2015-02-14,Y,Visit 1,1,2015-04-05,51,Serum,Alkaline phosphatase (ALP),µkat/L,1.37250131761165,0.5,1.5,1
01-008,1,Site 01,2015-02-14,Y,Visit 1,1,2015-04-05,51,Serum,"Aminotransferase, alanine (ALT)",pkat/L,0.164943993502411,0,0.58,1
01-008,1,Site 01,2015-02-14,Y,Visit 1,1,2015-04-05,51,Serum,"Aminotransferase, aspartate (AST)",pkat/L,0.194613868812165,0,0.58,1
01-008,1,Site 01,2015-02-14,Y,Visit 1,1,2015-04-05,51,Serum,Calcium,mmol/L,2.35504581106081,2.2,2.6,1
01-008,1,Site 01,2015-02-14,Y,Visit 1,1,2015-04-05,51,Serum,Chloride,mmol/L,,98,106,1
01-008,1,Site 01,2015-02-14,Y,Visit 1,1,2015-04-05,51,Serum,Creatinine,µmol/L,111.502326076589,61.9,115,1
01-008,1,Site 01,2015-02-14,Y,Visit 1,1,2015-04-05,51,Serum,Direct Bilirubin,µmol/L,3.26836044602966,0,5.1,1
01-008,1,Site 01,2015-02-14,Y,Visit 1,1,2015-04-05,51,Serum,IgE,mg/L,0.173721634661266,0.1,0.4,1
01-008,1,Site 01,2015-02-14,Y,Visit 1,1,2015-04-05,51,Serum,Magnesium,mmol/L,0.697410966082824,0.62,0.99,1
01-008,1,Site 01,2015-02-14,Y,Visit 1,1,2015-04-05,51,Serum,Potassium,mmol/L,3.99592148430212,3.5,5,1
01-008,1,Site 01,2015-02-14,Y,Visit 1,1,2015-04-05,51,Serum,Sodium,mmol/L,140.783775575645,136,145,1
01-008,1,Site 01,2015-02-14,Y,Visit 1,1,2015-04-05,51,Serum,Total Bilirubin,µmol/L,3.29164486364207,5.1,20.5,1
01-008,1,Site 01,2015-02-14,Y,Visit 1,1,2015-04-05,51,Vital Signs,Diastolic Blood Pressure,mmHg,61.4558744711706,60,80,1
01-008,1,Site 01,2015-02-14,Y,Visit 1,1,2015-04-05,51,Vital Signs,Heart Rate,beats/minute,34.3140815743033,50,80,1
01-008,1,Site 01,2015-02-14,Y,Visit 1,1,2015-04-05,51,Vital Signs,Respiratory Rate,breaths/minute,17.2835427429571,16,20,1
01-008,1,Site 01,2015-02-14,Y,Visit 1,1,2015-04-05,51,Vital Signs,Systolic Blood Pressure,mmHg,105.693308712896,90,120,1
01-008,1,Site 01,2015-02-14,Y,Visit 1,1,2015-04-05,51,Vital Signs,Temperature,°C,37.2462336615859,36.6,37,1
01-008,1,Site 01,2015-02-14,Y,Visit 2,2,2015-06-01,108,Blood,Platelet count,x 109/L,352.801398765362,150,350,2
01-008,1,Site 01,2015-02-14,Y,Visit 2,2,2015-06-01,108,Blood,RBC count,x 1012 cells/L,4.47993667740587,4.2,5.9,2
01-008,1,Site 01,2015-02-14,Y,Visit 2,2,2015-06-01,108,Blood,WBC count,x 109 cells/L,3.55480701128951,4.5,11,2
01-008,1,Site 01,2015-02-14,Y,Visit 2,2,2015-06-01,108,Serum,Albumin,g/L,42.9253645623885,35,55,2
01-008,1,Site 01,2015-02-14,Y,Visit 2,2,2015-06-01,108,Serum,Alkaline phosphatase (ALP),µkat/L,0.889671973813787,0.5,1.5,2
01-008,1,Site 01,2015-02-14,Y,Visit 2,2,2015-06-01,108,Serum,"Aminotransferase, alanine (ALT)",pkat/L,0.252477227919723,0,0.58,2
01-008,1,Site 01,2015-02-14,Y,Visit 2,2,2015-06-01,108,Serum,"Aminotransferase, aspartate (AST)",pkat/L,0.379256300122657,0,0.58,2
01-008,1,Site 01,2015-02-14,Y,Visit 2,2,2015-06-01,108,Serum,Calcium,mmol/L,2.36814949793219,2.2,2.6,2
01-008,1,Site 01,2015-02-14,Y,Visit 2,2,2015-06-01,108,Serum,Chloride,mmol/L,100.265838320933,98,106,2
01-008,1,Site 01,2015-02-14,Y,Visit 2,2,2015-06-01,108,Serum,Creatinine,µmol/L,68.3064933929743,61.9,115,2
01-008,1,Site 01,2015-02-14,Y,Visit 2,2,2015-06-01,108,Serum,Direct Bilirubin,µmol/L,6.3262942888608,0,5.1,2
01-008,1,Site 01,2015-02-14,Y,Visit 2,2,2015-06-01,108,Serum,IgE,mg/L,0.151717569962247,0.1,0.4,2
01-008,1,Site 01,2015-02-14,Y,Visit 2,2,2015-06-01,108,Serum,Magnesium,mmol/L,0.90017991704221,0.62,0.99,2
01-008,1,Site 01,2015-02-14,Y,Visit 2,2,2015-06-01,108,Serum,Potassium,mmol/L,4.47571829610284,3.5,5,2
01-008,1,Site 01,2015-02-14,Y,Visit 2,2,2015-06-01,108,Serum,Sodium,mmol/L,138.544412010564,136,145,2
01-008,1,Site 01,2015-02-14,Y,Visit 2,2,2015-06-01,108,Serum,Total Bilirubin,µmol/L,16.3873163970804,5.1,20.5,2
01-008,1,Site 01,2015-02-14,Y,Visit 2,2,2015-06-01,108,Vital Signs,Diastolic Blood Pressure,mmHg,,60,80,2
01-008,1,Site 01,2015-02-14,Y,Visit 2,2,2015-06-01,108,Vital Signs,Heart Rate,beats/minute,75.4400542119675,50,80,2
01-008,1,Site 01,2015-02-14,Y,Visit 2,2,2015-06-01,108,Vital Signs,Respiratory Rate,breaths/minute,15.1397357793448,16,20,2
01-008,1,Site 01,2015-02-14,Y,Visit 2,2,2015-06-01,108,Vital Signs,Systolic Blood Pressure,mmHg,100.304634628606,90,120,2
01-008,1,Site 01,2015-02-14,Y,Visit 2,2,2015-06-01,108,Vital Signs,Temperature,°C,36.2957784114542,36.6,37,2
01-008,1,Site 01,2015-02-14,Y,Visit 3,3,2015-08-05,173,Blood,Platelet count,x 109/L,67.3158408336754,150,350,3
01-008,1,Site 01,2015-02-14,Y,Visit 3,3,2015-08-05,173,Blood,RBC count,x 1012 cells/L,3.01921139908626,4.2,5.9,3
01-008,1,Site 01,2015-02-14,Y,Visit 3,3,2015-08-05,173,Blood,WBC count,x 109 cells/L,13.3499584157604,4.5,11,3
01-008,1,Site 01,2015-02-14,Y,Visit 3,3,2015-08-05,173,Serum,Albumin,g/L,45.927084177525,35,55,3
01-008,1,Site 01,2015-02-14,Y,Visit 3,3,2015-08-05,173,Serum,Alkaline phosphatase (ALP),µkat/L,1.07150753473461,0.5,1.5,3
01-008,1,Site 01,2015-02-14,Y,Visit 3,3,2015-08-05,173,Serum,"Aminotransferase, alanine (ALT)",pkat/L,0.287687201063858,0,0.58,3
01-008,1,Site 01,2015-02-14,Y,Visit 3,3,2015-08-05,173,Serum,"Aminotransferase, aspartate (AST)",pkat/L,0.527838953120775,0,0.58,3
01-008,1,Site 01,2015-02-14,Y,Visit 3,3,2015-08-05,173,Serum,Calcium,mmol/L,2.34339493613714,2.2,2.6,3
01-008,1,Site 01,2015-02-14,Y,Visit 3,3,2015-08-05,173,Serum,Chloride,mmol/L,96.6596969639023,98,106,3
01-008,1,Site 01,2015-02-14,Y,Visit 3,3,2015-08-05,173,Serum,Creatinine,µmol/L,135.322586802787,61.9,115,3
01-008,1,Site 01,2015-02-14,Y,Visit 3,3,2015-08-05,173,Serum,Direct Bilirubin,µmol/L,4.28523001205764,0,5.1,3
01-008,1,Site 01,2015-02-14,Y,Visit 3,3,2015-08-05,173,Serum,IgE,mg/L,0.293144736705968,0.1,0.4,3
01-008,1,Site 01,2015-02-14,Y,Visit 3,3,2015-08-05,173,Serum,Magnesium,mmol/L,0.817095411559925,0.62,0.99,3
01-008,1,Site 01,2015-02-14,Y,Visit 3,3,2015-08-05,173,Serum,Potassium,mmol/L,3.80946065092344,3.5,5,3
01-008,1,Site 01,2015-02-14,Y,Visit 3,3,2015-08-05,173,Serum,Sodium,mmol/L,,136,145,3
01-008,1,Site 01,2015-02-14,Y,Visit 3,3,2015-08-05,173,Serum,Total Bilirubin,µmol/L,5.53389601121583,5.1,20.5,3
01-008,1,Site 01,2015-02-14,Y,Visit 3,3,2015-08-05,173,Vital Signs,Diastolic Blood Pressure,mmHg,,60,80,3
01-008,1,Site 01,2015-02-14,Y,Visit 3,3,2015-08-05,173,Vital Signs,Heart Rate,beats/minute,,50,80,3
01-008,1,Site 01,2015-02-14,Y,Visit 3,3,2015-08-05,173,Vital Signs,Respiratory Rate,breaths/minute,17.884639200256,16,20,3
01-008,1,Site 01,2015-02-14,Y,Visit 3,3,2015-08-05,173,Vital Signs,Systolic Blood Pressure,mmHg,116.371904351584,90,120,3
01-008,1,Site 01,2015-02-14,Y,Visit 3,3,2015-08-05,173,Vital Signs,Temperature,°C,36.9714800347754,36.6,37,3
01-008,1,Site 01,2015-02-14,Y,Visit 4,4,2015-09-22,221,Blood,Platelet count,x 109/L,269.21862928104,150,350,4
01-008,1,Site 01,2015-02-14,Y,Visit 4,4,2015-09-22,221,Blood,RBC count,x 1012 cells/L,5.55265129321294,4.2,5.9,4
01-008,1,Site 01,2015-02-14,Y,Visit 4,4,2015-09-22,221,Blood,WBC count,x 109 cells/L,5.26269898008904,4.5,11,4
01-008,1,Site 01,2015-02-14,Y,Visit 4,4,2015-09-22,221,Serum,Albumin,g/L,35.8767510382789,35,55,4
01-008,1,Site 01,2015-02-14,Y,Visit 4,4,2015-09-22,221,Serum,Alkaline phosphatase (ALP),µkat/L,0.802136234318001,0.5,1.5,4
01-008,1,Site 01,2015-02-14,Y,Visit 4,4,2015-09-22,221,Serum,"Aminotransferase, alanine (ALT)",pkat/L,0.27449481085514,0,0.58,4
01-008,1,Site 01,2015-02-14,Y,Visit 4,4,2015-09-22,221,Serum,"Aminotransferase, aspartate (AST)",pkat/L,0.178113162788957,0,0.58,4
01-008,1,Site 01,2015-02-14,Y,Visit 4,4,2015-09-22,221,Serum,Calcium,mmol/L,2.53925930778775,2.2,2.6,4
01-008,1,Site 01,2015-02-14,Y,Visit 4,4,2015-09-22,221,Serum,Chloride,mmol/L,98.129233683226,98,106,4
01-008,1,Site 01,2015-02-14,Y,Visit 4,4,2015-09-22,221,Serum,Creatinine,µmol/L,23.5902341047823,61.9,115,4
01-008,1,Site 01,2015-02-14,Y,Visit 4,4,2015-09-22,221,Serum,Direct Bilirubin,µmol/L,2.34339745432055,0,5.1,4
01-008,1,Site 01,2015-02-14,Y,Visit 4,4,2015-09-22,221,Serum,IgE,mg/L,0,0.1,0.4,4
01-008,1,Site 01,2015-02-14,Y,Visit 4,4,2015-09-22,221,Serum,Magnesium,mmol/L,1.02427372472229,0.62,0.99,4
01-008,1,Site 01,2015-02-14,Y,Visit 4,4,2015-09-22,221,Serum,Potassium,mmol/L,4.86654018936137,3.5,5,4
01-008,1,Site 01,2015-02-14,Y,Visit 4,4,2015-09-22,221,Serum,Sodium,mmol/L,142.685093876298,136,145,4
01-008,1,Site 01,2015-02-14,Y,Visit 4,4,2015-09-22,221,Serum,Total Bilirubin,µmol/L,,5.1,20.5,4
01-008,1,Site 01,2015-02-14,Y,Visit 4,4,2015-09-22,221,Vital Signs,Diastolic Blood Pressure,mmHg,72.6537928573873,60,80,4
01-008,1,Site 01,2015-02-14,Y,Visit 4,4,2015-09-22,221,Vital Signs,Heart Rate,beats/minute,100.678711005596,50,80,4
01-008,1,Site 01,2015-02-14,Y,Visit 4,4,2015-09-22,221,Vital Signs,Respiratory Rate,breaths/minute,18.9376661809342,16,20,4
01-008,1,Site 01,2015-02-14,Y,Visit 4,4,2015-09-22,221,Vital Signs,Systolic Blood Pressure,mmHg,,90,120,4
01-008,1,Site 01,2015-02-14,Y,Visit 4,4,2015-09-22,221,Vital Signs,Temperature,°C,36.8653140515141,36.6,37,4
01-008,1,Site 01,2015-02-14,Y,Visit 5,5,2015-11-21,281,Blood,Platelet count,x 109/L,374.716592907978,150,350,5
01-008,1,Site 01,2015-02-14,Y,Visit 5,5,2015-11-21,281,Blood,RBC count,x 1012 cells/L,5.95434517057478,4.2,5.9,5
01-008,1,Site 01,2015-02-14,Y,Visit 5,5,2015-11-21,281,Blood,WBC count,x 109 cells/L,,4.5,11,5
01-008,1,Site 01,2015-02-14,Y,Visit 5,5,2015-11-21,281,Serum,Albumin,g/L,55.2882371950313,35,55,5
01-008,1,Site 01,2015-02-14,Y,Visit 5,5,2015-11-21,281,Serum,Alkaline phosphatase (ALP),µkat/L,1.47409463769275,0.5,1.5,5
01-008,1,Site 01,2015-02-14,Y,Visit 5,5,2015-11-21,281,Serum,"Aminotransferase, alanine (ALT)",pkat/L,0.165420213977375,0,0.58,5
01-008,1,Site 01,2015-02-14,Y,Visit 5,5,2015-11-21,281,Serum,"Aminotransferase, aspartate (AST)",pkat/L,0.173813792186011,0,0.58,5
01-008,1,Site 01,2015-02-14,Y,Visit 5,5,2015-11-21,281,Serum,Calcium,mmol/L,2.7651665855075,2.2,2.6,5
01-008,1,Site 01,2015-02-14,Y,Visit 5,5,2015-11-21,281,Serum,Chloride,mmol/L,100.483955695593,98,106,5
01-008,1,Site 01,2015-02-14,Y,Visit 5,5,2015-11-21,281,Serum,Creatinine,µmol/L,67.4001706969365,61.9,115,5
01-008,1,Site 01,2015-02-14,Y,Visit 5,5,2015-11-21,281,Serum,Direct Bilirubin,µmol/L,,0,5.1,5
01-008,1,Site 01,2015-02-14,Y,Visit 5,5,2015-11-21,281,Serum,IgE,mg/L,0.190729878491545,0.1,0.4,5
01-008,1,Site 01,2015-02-14,Y,Visit 5,5,2015-11-21,281,Serum,Magnesium,mmol/L,0.769615642913634,0.62,0.99,5
01-008,1,Site 01,2015-02-14,Y,Visit 5,5,2015-11-21,281,Serum,Potassium,mmol/L,,3.5,5,5
01-008,1,Site 01,2015-02-14,Y,Visit 5,5,2015-11-21,281,Serum,Sodium,mmol/L,138.497343932328,136,145,5
01-008,1,Site 01,2015-02-14,Y,Visit 5,5,2015-11-21,281,Serum,Total Bilirubin,µmol/L,0,5.1,20.5,5
01-008,1,Site 01,2015-02-14,Y,Visit 5,5,2015-11-21,281,Vital Signs,Diastolic Blood Pressure,mmHg,49.1273365858142,60,80,5
01-008,1,Site 01,2015-02-14,Y,Visit 5,5,2015-11-21,281,Vital Signs,Heart Rate,beats/minute,33.060903801035,50,80,5
01-008,1,Site 01,2015-02-14,Y,Visit 5,5,2015-11-21,281,Vital Signs,Respiratory Rate,breaths/minute,20.0849564031584,16,20,5
01-008,1,Site 01,2015-02-14,Y,Visit 5,5,2015-11-21,281,Vital Signs,Systolic Blood Pressure,mmHg,93.478487225696,90,120,5
01-008,1,Site 01,2015-02-14,Y,Visit 5,5,2015-11-21,281,Vital Signs,Temperature,°C,37.1118075304399,36.6,37,5
01-008,1,Site 01,2015-02-14,Y,Visit 6,6,2016-01-11,332,Blood,Platelet count,x 109/L,195.26711878301,150,350,6
01-008,1,Site 01,2015-02-14,Y,Visit 6,6,2016-01-11,332,Blood,RBC count,x 1012 cells/L,,4.2,5.9,6
01-008,1,Site 01,2015-02-14,Y,Visit 6,6,2016-01-11,332,Blood,WBC count,x 109 cells/L,7.1153035122301,4.5,11,6
01-008,1,Site 01,2015-02-14,Y,Visit 6,6,2016-01-11,332,Serum,Albumin,g/L,47.2576666949737,35,55,6
01-008,1,Site 01,2015-02-14,Y,Visit 6,6,2016-01-11,332,Serum,Alkaline phosphatase (ALP),µkat/L,0.470915452362633,0.5,1.5,6
01-008,1,Site 01,2015-02-14,Y,Visit 6,6,2016-01-11,332,Serum,"Aminotransferase, alanine (ALT)",pkat/L,,0,0.58,6
01-008,1,Site 01,2015-02-14,Y,Visit 6,6,2016-01-11,332,Serum,"Aminotransferase, aspartate (AST)",pkat/L,0.687490890603865,0,0.58,6
01-008,1,Site 01,2015-02-14,Y,Visit 6,6,2016-01-11,332,Serum,Calcium,mmol/L,,2.2,2.6,6
01-008,1,Site 01,2015-02-14,Y,Visit 6,6,2016-01-11,332,Serum,Chloride,mmol/L,103.622922065477,98,106,6
01-008,1,Site 01,2015-02-14,Y,Visit 6,6,2016-01-11,332,Serum,Creatinine,µmol/L,88.3073691497462,61.9,115,6
01-008,1,Site 01,2015-02-14,Y,Visit 6,6,2016-01-11,332,Serum,Direct Bilirubin,µmol/L,1.46654150714583,0,5.1,6
01-008,1,Site 01,2015-02-14,Y,Visit 6,6,2016-01-11,332,Serum,IgE,mg/L,0.0932940231198343,0.1,0.4,6
01-008,1,Site 01,2015-02-14,Y,Visit 6,6,2016-01-11,332,Serum,Magnesium,mmol/L,,0.62,0.99,6
01-008,1,Site 01,2015-02-14,Y,Visit 6,6,2016-01-11,332,Serum,Potassium,mmol/L,4.67061290661943,3.5,5,6
01-008,1,Site 01,2015-02-14,Y,Visit 6,6,2016-01-11,332,Serum,Sodium,mmol/L,140.011575118913,136,145,6
01-008,1,Site 01,2015-02-14,Y,Visit 6,6,2016-01-11,332,Serum,Total Bilirubin,µmol/L,0,5.1,20.5,6
01-008,1,Site 01,2015-02-14,Y,Visit 6,6,2016-01-11,332,Vital Signs,Diastolic Blood Pressure,mmHg,67.0168001265409,60,80,6
01-008,1,Site 01,2015-02-14,Y,Visit 6,6,2016-01-11,332,Vital Signs,Heart Rate,beats/minute,77.4034820603532,50,80,6
01-008,1,Site 01,2015-02-14,Y,Visit 6,6,2016-01-11,332,Vital Signs,Respiratory Rate,breaths/minute,19.5924193857521,16,20,6
01-008,1,Site 01,2015-02-14,Y,Visit 6,6,2016-01-11,332,Vital Signs,Systolic Blood Pressure,mmHg,81.5403172940746,90,120,6
01-008,1,Site 01,2015-02-14,Y,Visit 6,6,2016-01-11,332,Vital Signs,Temperature,°C,36.7392361293616,36.6,37,6
01-008,1,Site 01,2015-02-14,Y,End of Study,7,2016-02-15,367,Blood,Platelet count,x 109/L,159.169671905121,150,350,7
01-008,1,Site 01,2015-02-14,Y,End of Study,7,2016-02-15,367,Blood,RBC count,x 1012 cells/L,5.02316112685716,4.2,5.9,7
01-008,1,Site 01,2015-02-14,Y,End of Study,7,2016-02-15,367,Blood,WBC count,x 109 cells/L,8.42339016413678,4.5,11,7
01-008,1,Site 01,2015-02-14,Y,End of Study,7,2016-02-15,367,Serum,Albumin,g/L,33.3565115629789,35,55,7
01-008,1,Site 01,2015-02-14,Y,End of Study,7,2016-02-15,367,Serum,Alkaline phosphatase (ALP),µkat/L,0,0.5,1.5,7
01-008,1,Site 01,2015-02-14,Y,End of Study,7,2016-02-15,367,Serum,"Aminotransferase, alanine (ALT)",pkat/L,0.615844967282719,0,0.58,7
01-008,1,Site 01,2015-02-14,Y,End of Study,7,2016-02-15,367,Serum,"Aminotransferase, aspartate (AST)",pkat/L,0.645776593185982,0,0.58,7
01-008,1,Site 01,2015-02-14,Y,End of Study,7,2016-02-15,367,Serum,Calcium,mmol/L,2.49271018004554,2.2,2.6,7
01-008,1,Site 01,2015-02-14,Y,End of Study,7,2016-02-15,367,Serum,Chloride,mmol/L,,98,106,7
01-008,1,Site 01,2015-02-14,Y,End of Study,7,2016-02-15,367,Serum,Creatinine,µmol/L,81.448574112046,61.9,115,7
01-008,1,Site 01,2015-02-14,Y,End of Study,7,2016-02-15,367,Serum,Direct Bilirubin,µmol/L,,0,5.1,7
01-008,1,Site 01,2015-02-14,Y,End of Study,7,2016-02-15,367,Serum,IgE,mg/L,0.227571326770914,0.1,0.4,7
01-008,1,Site 01,2015-02-14,Y,End of Study,7,2016-02-15,367,Serum,Magnesium,mmol/L,0.60744222276649,0.62,0.99,7
01-008,1,Site 01,2015-02-14,Y,End of Study,7,2016-02-15,367,Serum,Potassium,mmol/L,4.54912010989528,3.5,5,7
01-008,1,Site 01,2015-02-14,Y,End of Study,7,2016-02-15,367,Serum,Sodium,mmol/L,144.97890323362,136,145,7
01-008,1,Site 01,2015-02-14,Y,End of Study,7,2016-02-15,367,Serum,Total Bilirubin,µmol/L,13.8703343873501,5.1,20.5,7
01-008,1,Site 01,2015-02-14,Y,End of Study,7,2016-02-15,367,Vital Signs,Diastolic Blood Pressure,mmHg,78.5790341537459,60,80,7
01-008,1,Site 01,2015-02-14,Y,End of Study,7,2016-02-15,367,Vital Signs,Heart Rate,beats/minute,39.1678148411657,50,80,7
01-008,1,Site 01,2015-02-14,Y,End of Study,7,2016-02-15,367,Vital Signs,Respiratory Rate,breaths/minute,16.9434562590265,16,20,7
01-008,1,Site 01,2015-02-14,Y,End of Study,7,2016-02-15,367,Vital Signs,Systolic Blood Pressure,mmHg,102.231632844714,90,120,7
01-008,1,Site 01,2015-02-14,Y,End of Study,7,2016-02-15,367,Vital Signs,Temperature,°C,36.723412496007,36.6,37,7
01-009,1,Site 01,2015-11-22,Y,Screening,0,2015-11-22,1,Blood,Platelet count,x 109/L,74.8114565323953,150,350,0
01-009,1,Site 01,2015-11-22,Y,Screening,0,2015-11-22,1,Blood,RBC count,x 1012 cells/L,3.55857577269819,4.2,5.9,0
01-009,1,Site 01,2015-11-22,Y,Screening,0,2015-11-22,1,Blood,WBC count,x 109 cells/L,10.1703192117102,4.5,11,0
01-009,1,Site 01,2015-11-22,Y,Screening,0,2015-11-22,1,Serum,Albumin,g/L,38.5304580271029,35,55,0
01-009,1,Site 01,2015-11-22,Y,Screening,0,2015-11-22,1,Serum,Alkaline phosphatase (ALP),µkat/L,,0.5,1.5,0
01-009,1,Site 01,2015-11-22,Y,Screening,0,2015-11-22,1,Serum,"Aminotransferase, alanine (ALT)",pkat/L,0.0858247496446498,0,0.58,0
01-009,1,Site 01,2015-11-22,Y,Screening,0,2015-11-22,1,Serum,"Aminotransferase, aspartate (AST)",pkat/L,0.00101797751824223,0,0.58,0
01-009,1,Site 01,2015-11-22,Y,Screening,0,2015-11-22,1,Serum,Calcium,mmol/L,2.69031053275134,2.2,2.6,0
01-009,1,Site 01,2015-11-22,Y,Screening,0,2015-11-22,1,Serum,Chloride,mmol/L,110.993263758816,98,106,0
01-009,1,Site 01,2015-11-22,Y,Screening,0,2015-11-22,1,Serum,Creatinine,µmol/L,84.4268878568347,61.9,115,0
01-009,1,Site 01,2015-11-22,Y,Screening,0,2015-11-22,1,Serum,Direct Bilirubin,µmol/L,0,0,5.1,0
01-009,1,Site 01,2015-11-22,Y,Screening,0,2015-11-22,1,Serum,IgE,mg/L,0.0340886089768391,0.1,0.4,0
01-009,1,Site 01,2015-11-22,Y,Screening,0,2015-11-22,1,Serum,Magnesium,mmol/L,0.989167273101675,0.62,0.99,0
01-009,1,Site 01,2015-11-22,Y,Screening,0,2015-11-22,1,Serum,Potassium,mmol/L,4.54977211274216,3.5,5,0
01-009,1,Site 01,2015-11-22,Y,Screening,0,2015-11-22,1,Serum,Sodium,mmol/L,131.049801352124,136,145,0
01-009,1,Site 01,2015-11-22,Y,Screening,0,2015-11-22,1,Serum,Total Bilirubin,µmol/L,18.4302557594404,5.1,20.5,0
01-009,1,Site 01,2015-11-22,Y,Screening,0,2015-11-22,1,Vital Signs,Diastolic Blood Pressure,mmHg,100.999908947058,60,80,0
01-009,1,Site 01,2015-11-22,Y,Screening,0,2015-11-22,1,Vital Signs,Heart Rate,beats/minute,74.7912271386179,50,80,0
01-009,1,Site 01,2015-11-22,Y,Screening,0,2015-11-22,1,Vital Signs,Respiratory Rate,breaths/minute,22.2370222198628,16,20,0
01-009,1,Site 01,2015-11-22,Y,Screening,0,2015-11-22,1,Vital Signs,Systolic Blood Pressure,mmHg,116.118425024933,90,120,0
01-009,1,Site 01,2015-11-22,Y,Screening,0,2015-11-22,1,Vital Signs,Temperature,°C,36.6630098689222,36.6,37,0
01-009,1,Site 01,2015-11-22,Y,Visit 1,1,2016-01-21,61,Blood,Platelet count,x 109/L,105.849100571981,150,350,1
01-009,1,Site 01,2015-11-22,Y,Visit 1,1,2016-01-21,61,Blood,RBC count,x 1012 cells/L,3.62711230703238,4.2,5.9,1
01-009,1,Site 01,2015-11-22,Y,Visit 1,1,2016-01-21,61,Blood,WBC count,x 109 cells/L,7.78613259983009,4.5,11,1
01-009,1,Site 01,2015-11-22,Y,Visit 1,1,2016-01-21,61,Serum,Albumin,g/L,64.1417793258478,35,55,1
01-009,1,Site 01,2015-11-22,Y,Visit 1,1,2016-01-21,61,Serum,Alkaline phosphatase (ALP),µkat/L,0.938099682294335,0.5,1.5,1
01-009,1,Site 01,2015-11-22,Y,Visit 1,1,2016-01-21,61,Serum,"Aminotransferase, alanine (ALT)",pkat/L,0.098800069569645,0,0.58,1
01-009,1,Site 01,2015-11-22,Y,Visit 1,1,2016-01-21,61,Serum,"Aminotransferase, aspartate (AST)",pkat/L,0.730248515780857,0,0.58,1
01-009,1,Site 01,2015-11-22,Y,Visit 1,1,2016-01-21,61,Serum,Calcium,mmol/L,2.66571974395197,2.2,2.6,1
01-009,1,Site 01,2015-11-22,Y,Visit 1,1,2016-01-21,61,Serum,Chloride,mmol/L,,98,106,1
01-009,1,Site 01,2015-11-22,Y,Visit 1,1,2016-01-21,61,Serum,Creatinine,µmol/L,98.4523177596614,61.9,115,1
01-009,1,Site 01,2015-11-22,Y,Visit 1,1,2016-01-21,61,Serum,Direct Bilirubin,µmol/L,4.30791462358563,0,5.1,1
01-009,1,Site 01,2015-11-22,Y,Visit 1,1,2016-01-21,61,Serum,IgE,mg/L,0.19960290871534,0.1,0.4,1
01-009,1,Site 01,2015-11-22,Y,Visit 1,1,2016-01-21,61,Serum,Magnesium,mmol/L,0.90181361353344,0.62,0.99,1
01-009,1,Site 01,2015-11-22,Y,Visit 1,1,2016-01-21,61,Serum,Potassium,mmol/L,4.62034416666491,3.5,5,1
01-009,1,Site 01,2015-11-22,Y,Visit 1,1,2016-01-21,61,Serum,Sodium,mmol/L,150.962929265842,136,145,1
01-009,1,Site 01,2015-11-22,Y,Visit 1,1,2016-01-21,61,Serum,Total Bilirubin,µmol/L,18.1957001786857,5.1,20.5,1
01-009,1,Site 01,2015-11-22,Y,Visit 1,1,2016-01-21,61,Vital Signs,Diastolic Blood Pressure,mmHg,80.5595946231652,60,80,1
01-009,1,Site 01,2015-11-22,Y,Visit 1,1,2016-01-21,61,Vital Signs,Heart Rate,beats/minute,23.519246667662,50,80,1
01-009,1,Site 01,2015-11-22,Y,Visit 1,1,2016-01-21,61,Vital Signs,Respiratory Rate,breaths/minute,14.7913465245039,16,20,1
01-009,1,Site 01,2015-11-22,Y,Visit 1,1,2016-01-21,61,Vital Signs,Systolic Blood Pressure,mmHg,103.653279848144,90,120,1
01-009,1,Site 01,2015-11-22,Y,Visit 1,1,2016-01-21,61,Vital Signs,Temperature,°C,36.6026730550965,36.6,37,1
01-009,1,Site 01,2015-11-22,Y,Visit 2,2,2016-03-14,114,Blood,Platelet count,x 109/L,0,150,350,2
01-009,1,Site 01,2015-11-22,Y,Visit 2,2,2016-03-14,114,Blood,RBC count,x 1012 cells/L,4.82577840158956,4.2,5.9,2
01-009,1,Site 01,2015-11-22,Y,Visit 2,2,2016-03-14,114,Blood,WBC count,x 109 cells/L,13.0772663162864,4.5,11,2
01-009,1,Site 01,2015-11-22,Y,Visit 2,2,2016-03-14,114,Serum,Albumin,g/L,31.9081193083819,35,55,2
01-009,1,Site 01,2015-11-22,Y,Visit 2,2,2016-03-14,114,Serum,Alkaline phosphatase (ALP),µkat/L,1.06389681428687,0.5,1.5,2
01-009,1,Site 01,2015-11-22,Y,Visit 2,2,2016-03-14,114,Serum,"Aminotransferase, alanine (ALT)",pkat/L,0.0383708313779023,0,0.58,2
01-009,1,Site 01,2015-11-22,Y,Visit 2,2,2016-03-14,114,Serum,"Aminotransferase, aspartate (AST)",pkat/L,0.452917617454597,0,0.58,2
01-009,1,Site 01,2015-11-22,Y,Visit 2,2,2016-03-14,114,Serum,Calcium,mmol/L,2.60239733143281,2.2,2.6,2
01-009,1,Site 01,2015-11-22,Y,Visit 2,2,2016-03-14,114,Serum,Chloride,mmol/L,104.289182820192,98,106,2
01-009,1,Site 01,2015-11-22,Y,Visit 2,2,2016-03-14,114,Serum,Creatinine,µmol/L,53.8053534395966,61.9,115,2
01-009,1,Site 01,2015-11-22,Y,Visit 2,2,2016-03-14,114,Serum,Direct Bilirubin,µmol/L,1.94828304878412,0,5.1,2
01-009,1,Site 01,2015-11-22,Y,Visit 2,2,2016-03-14,114,Serum,IgE,mg/L,0.331202495007329,0.1,0.4,2
01-009,1,Site 01,2015-11-22,Y,Visit 2,2,2016-03-14,114,Serum,Magnesium,mmol/L,0.379099061398992,0.62,0.99,2
01-009,1,Site 01,2015-11-22,Y,Visit 2,2,2016-03-14,114,Serum,Potassium,mmol/L,3.33622350088539,3.5,5,2
01-009,1,Site 01,2015-11-22,Y,Visit 2,2,2016-03-14,114,Serum,Sodium,mmol/L,136.335136278789,136,145,2
01-009,1,Site 01,2015-11-22,Y,Visit 2,2,2016-03-14,114,Serum,Total Bilirubin,µmol/L,13.5933996296493,5.1,20.5,2
01-009,1,Site 01,2015-11-22,Y,Visit 2,2,2016-03-14,114,Vital Signs,Diastolic Blood Pressure,mmHg,,60,80,2
01-009,1,Site 01,2015-11-22,Y,Visit 2,2,2016-03-14,114,Vital Signs,Heart Rate,beats/minute,75.8777778947534,50,80,2
01-009,1,Site 01,2015-11-22,Y,Visit 2,2,2016-03-14,114,Vital Signs,Respiratory Rate,breaths/minute,18.140588380081,16,20,2
01-009,1,Site 01,2015-11-22,Y,Visit 2,2,2016-03-14,114,Vital Signs,Systolic Blood Pressure,mmHg,97.0683855350498,90,120,2
01-009,1,Site 01,2015-11-22,Y,Visit 2,2,2016-03-14,114,Vital Signs,Temperature,°C,36.9465931958164,36.6,37,2
01-009,1,Site 01,2015-11-22,Y,Visit 3,3,2016-05-01,162,Blood,Platelet count,x 109/L,242.172201307118,150,350,3
01-009,1,Site 01,2015-11-22,Y,Visit 3,3,2016-05-01,162,Blood,RBC count,x 1012 cells/L,6.19523016957058,4.2,5.9,3
01-009,1,Site 01,2015-11-22,Y,Visit 3,3,2016-05-01,162,Blood,WBC count,x 109 cells/L,13.6857201905666,4.5,11,3
01-009,1,Site 01,2015-11-22,Y,Visit 3,3,2016-05-01,162,Serum,Albumin,g/L,29.2820529049613,35,55,3
01-009,1,Site 01,2015-11-22,Y,Visit 3,3,2016-05-01,162,Serum,Alkaline phosphatase (ALP),µkat/L,0.895635875378645,0.5,1.5,3
01-009,1,Site 01,2015-11-22,Y,Visit 3,3,2016-05-01,162,Serum,"Aminotransferase, alanine (ALT)",pkat/L,0.747083958083048,0,0.58,3
01-009,1,Site 01,2015-11-22,Y,Visit 3,3,2016-05-01,162,Serum,"Aminotransferase, aspartate (AST)",pkat/L,0.151519733502232,0,0.58,3
01-009,1,Site 01,2015-11-22,Y,Visit 3,3,2016-05-01,162,Serum,Calcium,mmol/L,2.49473508118884,2.2,2.6,3
01-009,1,Site 01,2015-11-22,Y,Visit 3,3,2016-05-01,162,Serum,Chloride,mmol/L,101.778270428613,98,106,3
01-009,1,Site 01,2015-11-22,Y,Visit 3,3,2016-05-01,162,Serum,Creatinine,µmol/L,83.8694571442666,61.9,115,3
01-009,1,Site 01,2015-11-22,Y,Visit 3,3,2016-05-01,162,Serum,Direct Bilirubin,µmol/L,4.54421873978759,0,5.1,3
01-009,1,Site 01,2015-11-22,Y,Visit 3,3,2016-05-01,162,Serum,IgE,mg/L,,0.1,0.4,3
01-009,1,Site 01,2015-11-22,Y,Visit 3,3,2016-05-01,162,Serum,Magnesium,mmol/L,0.903339657326743,0.62,0.99,3
01-009,1,Site 01,2015-11-22,Y,Visit 3,3,2016-05-01,162,Serum,Potassium,mmol/L,4.66993837110721,3.5,5,3
01-009,1,Site 01,2015-11-22,Y,Visit 3,3,2016-05-01,162,Serum,Sodium,mmol/L,,136,145,3
01-009,1,Site 01,2015-11-22,Y,Visit 3,3,2016-05-01,162,Serum,Total Bilirubin,µmol/L,19.1624062175994,5.1,20.5,3
01-009,1,Site 01,2015-11-22,Y,Visit 3,3,2016-05-01,162,Vital Signs,Diastolic Blood Pressure,mmHg,,60,80,3
01-009,1,Site 01,2015-11-22,Y,Visit 3,3,2016-05-01,162,Vital Signs,Heart Rate,beats/minute,,50,80,3
01-009,1,Site 01,2015-11-22,Y,Visit 3,3,2016-05-01,162,Vital Signs,Respiratory Rate,breaths/minute,16.2321657646172,16,20,3
01-009,1,Site 01,2015-11-22,Y,Visit 3,3,2016-05-01,162,Vital Signs,Systolic Blood Pressure,mmHg,124.1654759149,90,120,3
01-009,1,Site 01,2015-11-22,Y,Visit 3,3,2016-05-01,162,Vital Signs,Temperature,°C,37.0004460358047,36.6,37,3
01-009,1,Site 01,2015-11-22,Y,Visit 4,4,2016-06-28,220,Blood,Platelet count,x 109/L,355.005139971459,150,350,4
01-009,1,Site 01,2015-11-22,Y,Visit 4,4,2016-06-28,220,Blood,RBC count,x 1012 cells/L,4.25623744022001,4.2,5.9,4
01-009,1,Site 01,2015-11-22,Y,Visit 4,4,2016-06-28,220,Blood,WBC count,x 109 cells/L,5.81290909168972,4.5,11,4
01-009,1,Site 01,2015-11-22,Y,Visit 4,4,2016-06-28,220,Serum,Albumin,g/L,38.5437233399102,35,55,4
01-009,1,Site 01,2015-11-22,Y,Visit 4,4,2016-06-28,220,Serum,Alkaline phosphatase (ALP),µkat/L,1.23896418734159,0.5,1.5,4
01-009,1,Site 01,2015-11-22,Y,Visit 4,4,2016-06-28,220,Serum,"Aminotransferase, alanine (ALT)",pkat/L,0.156308329046358,0,0.58,4
01-009,1,Site 01,2015-11-22,Y,Visit 4,4,2016-06-28,220,Serum,"Aminotransferase, aspartate (AST)",pkat/L,0.472501595829386,0,0.58,4
01-009,1,Site 01,2015-11-22,Y,Visit 4,4,2016-06-28,220,Serum,Calcium,mmol/L,2.21519978980413,2.2,2.6,4
01-009,1,Site 01,2015-11-22,Y,Visit 4,4,2016-06-28,220,Serum,Chloride,mmol/L,108.606075307871,98,106,4
01-009,1,Site 01,2015-11-22,Y,Visit 4,4,2016-06-28,220,Serum,Creatinine,µmol/L,96.2949933175927,61.9,115,4
01-009,1,Site 01,2015-11-22,Y,Visit 4,4,2016-06-28,220,Serum,Direct Bilirubin,µmol/L,2.59508906583357,0,5.1,4
01-009,1,Site 01,2015-11-22,Y,Visit 4,4,2016-06-28,220,Serum,IgE,mg/L,0.549068357290987,0.1,0.4,4
01-009,1,Site 01,2015-11-22,Y,Visit 4,4,2016-06-28,220,Serum,Magnesium,mmol/L,0.389545401697899,0.62,0.99,4
01-009,1,Site 01,2015-11-22,Y,Visit 4,4,2016-06-28,220,Serum,Potassium,mmol/L,6.26548744942016,3.5,5,4
01-009,1,Site 01,2015-11-22,Y,Visit 4,4,2016-06-28,220,Serum,Sodium,mmol/L,143.037407900905,136,145,4
01-009,1,Site 01,2015-11-22,Y,Visit 4,4,2016-06-28,220,Serum,Total Bilirubin,µmol/L,,5.1,20.5,4
01-009,1,Site 01,2015-11-22,Y,Visit 4,4,2016-06-28,220,Vital Signs,Diastolic Blood Pressure,mmHg,75.0659869396745,60,80,4
01-009,1,Site 01,2015-11-22,Y,Visit 4,4,2016-06-28,220,Vital Signs,Heart Rate,beats/minute,78.1360216880036,50,80,4
01-009,1,Site 01,2015-11-22,Y,Visit 4,4,2016-06-28,220,Vital Signs,Respiratory Rate,breaths/minute,17.8455580443972,16,20,4
01-009,1,Site 01,2015-11-22,Y,Visit 4,4,2016-06-28,220,Vital Signs,Systolic Blood Pressure,mmHg,,90,120,4
01-009,1,Site 01,2015-11-22,Y,Visit 4,4,2016-06-28,220,Vital Signs,Temperature,°C,36.6247064746034,36.6,37,4
01-009,1,Site 01,2015-11-22,Y,Visit 5,5,2016-08-23,276,Blood,Platelet count,x 109/L,260.542765943318,150,350,5
01-009,1,Site 01,2015-11-22,Y,Visit 5,5,2016-08-23,276,Blood,RBC count,x 1012 cells/L,4.92324004941747,4.2,5.9,5
01-009,1,Site 01,2015-11-22,Y,Visit 5,5,2016-08-23,276,Blood,WBC count,x 109 cells/L,,4.5,11,5
01-009,1,Site 01,2015-11-22,Y,Visit 5,5,2016-08-23,276,Serum,Albumin,g/L,51.3543191553523,35,55,5
01-009,1,Site 01,2015-11-22,Y,Visit 5,5,2016-08-23,276,Serum,Alkaline phosphatase (ALP),µkat/L,0.887609696188432,0.5,1.5,5
01-009,1,Site 01,2015-11-22,Y,Visit 5,5,2016-08-23,276,Serum,"Aminotransferase, alanine (ALT)",pkat/L,0,0,0.58,5
01-009,1,Site 01,2015-11-22,Y,Visit 5,5,2016-08-23,276,Serum,"Aminotransferase, aspartate (AST)",pkat/L,0.257968270338931,0,0.58,5
01-009,1,Site 01,2015-11-22,Y,Visit 5,5,2016-08-23,276,Serum,Calcium,mmol/L,2.49735316164361,2.2,2.6,5
01-009,1,Site 01,2015-11-22,Y,Visit 5,5,2016-08-23,276,Serum,Chloride,mmol/L,100.95927093353,98,106,5
01-009,1,Site 01,2015-11-22,Y,Visit 5,5,2016-08-23,276,Serum,Creatinine,µmol/L,66.8971770806634,61.9,115,5
01-009,1,Site 01,2015-11-22,Y,Visit 5,5,2016-08-23,276,Serum,Direct Bilirubin,µmol/L,0,0,5.1,5
01-009,1,Site 01,2015-11-22,Y,Visit 5,5,2016-08-23,276,Serum,IgE,mg/L,0.1873725059879,0.1,0.4,5
01-009,1,Site 01,2015-11-22,Y,Visit 5,5,2016-08-23,276,Serum,Magnesium,mmol/L,0.89873474393911,0.62,0.99,5
01-009,1,Site 01,2015-11-22,Y,Visit 5,5,2016-08-23,276,Serum,Potassium,mmol/L,,3.5,5,5
01-009,1,Site 01,2015-11-22,Y,Visit 5,5,2016-08-23,276,Serum,Sodium,mmol/L,139.756593856195,136,145,5
01-009,1,Site 01,2015-11-22,Y,Visit 5,5,2016-08-23,276,Serum,Total Bilirubin,µmol/L,6.32753084784473,5.1,20.5,5
01-009,1,Site 01,2015-11-22,Y,Visit 5,5,2016-08-23,276,Vital Signs,Diastolic Blood Pressure,mmHg,53.4553098924976,60,80,5
01-009,1,Site 01,2015-11-22,Y,Visit 5,5,2016-08-23,276,Vital Signs,Heart Rate,beats/minute,53.1342411379841,50,80,5
01-009,1,Site 01,2015-11-22,Y,Visit 5,5,2016-08-23,276,Vital Signs,Respiratory Rate,breaths/minute,16.0714328716075,16,20,5
01-009,1,Site 01,2015-11-22,Y,Visit 5,5,2016-08-23,276,Vital Signs,Systolic Blood Pressure,mmHg,111.870766870135,90,120,5
01-009,1,Site 01,2015-11-22,Y,Visit 5,5,2016-08-23,276,Vital Signs,Temperature,°C,36.6708593381696,36.6,37,5
01-009,1,Site 01,2015-11-22,Y,Visit 6,6,2016-10-16,330,Blood,Platelet count,x 109/L,190.411209998851,150,350,6
01-009,1,Site 01,2015-11-22,Y,Visit 6,6,2016-10-16,330,Blood,RBC count,x 1012 cells/L,,4.2,5.9,6
01-009,1,Site 01,2015-11-22,Y,Visit 6,6,2016-10-16,330,Blood,WBC count,x 109 cells/L,11.8815466267606,4.5,11,6
01-009,1,Site 01,2015-11-22,Y,Visit 6,6,2016-10-16,330,Serum,Albumin,g/L,46.5775021106674,35,55,6
01-009,1,Site 01,2015-11-22,Y,Visit 6,6,2016-10-16,330,Serum,Alkaline phosphatase (ALP),µkat/L,1.15931985626559,0.5,1.5,6
01-009,1,Site 01,2015-11-22,Y,Visit 6,6,2016-10-16,330,Serum,"Aminotransferase, alanine (ALT)",pkat/L,,0,0.58,6
01-009,1,Site 01,2015-11-22,Y,Visit 6,6,2016-10-16,330,Serum,"Aminotransferase, aspartate (AST)",pkat/L,0.379785216444159,0,0.58,6
01-009,1,Site 01,2015-11-22,Y,Visit 6,6,2016-10-16,330,Serum,Calcium,mmol/L,,2.2,2.6,6
01-009,1,Site 01,2015-11-22,Y,Visit 6,6,2016-10-16,330,Serum,Chloride,mmol/L,99.71950951781,98,106,6
01-009,1,Site 01,2015-11-22,Y,Visit 6,6,2016-10-16,330,Serum,Creatinine,µmol/L,155.8020779689,61.9,115,6
01-009,1,Site 01,2015-11-22,Y,Visit 6,6,2016-10-16,330,Serum,Direct Bilirubin,µmol/L,0,0,5.1,6
01-009,1,Site 01,2015-11-22,Y,Visit 6,6,2016-10-16,330,Serum,IgE,mg/L,0.50673377000224,0.1,0.4,6
01-009,1,Site 01,2015-11-22,Y,Visit 6,6,2016-10-16,330,Serum,Magnesium,mmol/L,,0.62,0.99,6
01-009,1,Site 01,2015-11-22,Y,Visit 6,6,2016-10-16,330,Serum,Potassium,mmol/L,4.00389083996314,3.5,5,6
01-009,1,Site 01,2015-11-22,Y,Visit 6,6,2016-10-16,330,Serum,Sodium,mmol/L,141.87583665452,136,145,6
01-009,1,Site 01,2015-11-22,Y,Visit 6,6,2016-10-16,330,Serum,Total Bilirubin,µmol/L,14.7767083863878,5.1,20.5,6
01-009,1,Site 01,2015-11-22,Y,Visit 6,6,2016-10-16,330,Vital Signs,Diastolic Blood Pressure,mmHg,67.1185116827757,60,80,6
01-009,1,Site 01,2015-11-22,Y,Visit 6,6,2016-10-16,330,Vital Signs,Heart Rate,beats/minute,89.8225690611987,50,80,6
01-009,1,Site 01,2015-11-22,Y,Visit 6,6,2016-10-16,330,Vital Signs,Respiratory Rate,breaths/minute,15.3223928157775,16,20,6
01-009,1,Site 01,2015-11-22,Y,Visit 6,6,2016-10-16,330,Vital Signs,Systolic Blood Pressure,mmHg,113.71108253728,90,120,6
01-009,1,Site 01,2015-11-22,Y,Visit 6,6,2016-10-16,330,Vital Signs,Temperature,°C,37.295777993481,36.6,37,6
01-009,1,Site 01,2015-11-22,Y,End of Study,7,2016-11-20,365,Blood,Platelet count,x 109/L,149.269001825287,150,350,7
01-009,1,Site 01,2015-11-22,Y,End of Study,7,2016-11-20,365,Blood,RBC count,x 1012 cells/L,5.37207251431116,4.2,5.9,7
01-009,1,Site 01,2015-11-22,Y,End of Study,7,2016-11-20,365,Blood,WBC count,x 109 cells/L,5.8663651632972,4.5,11,7
01-009,1,Site 01,2015-11-22,Y,End of Study,7,2016-11-20,365,Serum,Albumin,g/L,51.2492844769787,35,55,7
01-009,1,Site 01,2015-11-22,Y,End of Study,7,2016-11-20,365,Serum,Alkaline phosphatase (ALP),µkat/L,0.461690821631494,0.5,1.5,7
01-009,1,Site 01,2015-11-22,Y,End of Study,7,2016-11-20,365,Serum,"Aminotransferase, alanine (ALT)",pkat/L,0.43469676970518,0,0.58,7
01-009,1,Site 01,2015-11-22,Y,End of Study,7,2016-11-20,365,Serum,"Aminotransferase, aspartate (AST)",pkat/L,0.204319316246679,0,0.58,7
01-009,1,Site 01,2015-11-22,Y,End of Study,7,2016-11-20,365,Serum,Calcium,mmol/L,2.80004573902435,2.2,2.6,7
01-009,1,Site 01,2015-11-22,Y,End of Study,7,2016-11-20,365,Serum,Chloride,mmol/L,,98,106,7
01-009,1,Site 01,2015-11-22,Y,End of Study,7,2016-11-20,365,Serum,Creatinine,µmol/L,82.2588239246951,61.9,115,7
01-009,1,Site 01,2015-11-22,Y,End of Study,7,2016-11-20,365,Serum,Direct Bilirubin,µmol/L,,0,5.1,7
01-009,1,Site 01,2015-11-22,Y,End of Study,7,2016-11-20,365,Serum,IgE,mg/L,0.0623041829092323,0.1,0.4,7
01-009,1,Site 01,2015-11-22,Y,End of Study,7,2016-11-20,365,Serum,Magnesium,mmol/L,0.82856767340627,0.62,0.99,7
01-009,1,Site 01,2015-11-22,Y,End of Study,7,2016-11-20,365,Serum,Potassium,mmol/L,3.34217380596413,3.5,5,7
01-009,1,Site 01,2015-11-22,Y,End of Study,7,2016-11-20,365,Serum,Sodium,mmol/L,143.038433613902,136,145,7
01-009,1,Site 01,2015-11-22,Y,End of Study,7,2016-11-20,365,Serum,Total Bilirubin,µmol/L,13.5778047282239,5.1,20.5,7
01-009,1,Site 01,2015-11-22,Y,End of Study,7,2016-11-20,365,Vital Signs,Diastolic Blood Pressure,mmHg,46.3094504855445,60,80,7
01-009,1,Site 01,2015-11-22,Y,End of Study,7,2016-11-20,365,Vital Signs,Heart Rate,beats/minute,61.3374204675145,50,80,7
01-009,1,Site 01,2015-11-22,Y,End of Study,7,2016-11-20,365,Vital Signs,Respiratory Rate,breaths/minute,18.0907732160832,16,20,7
01-009,1,Site 01,2015-11-22,Y,End of Study,7,2016-11-20,365,Vital Signs,Systolic Blood Pressure,mmHg,124.853390625262,90,120,7
01-009,1,Site 01,2015-11-22,Y,End of Study,7,2016-11-20,365,Vital Signs,Temperature,°C,36.6814197290404,36.6,37,7
01-010,1,Site 01,2015-01-07,Y,Screening,0,2015-01-07,1,Blood,Platelet count,x 109/L,356.811884036557,150,350,0
01-010,1,Site 01,2015-01-07,Y,Screening,0,2015-01-07,1,Blood,RBC count,x 1012 cells/L,5.81702349060167,4.2,5.9,0
01-010,1,Site 01,2015-01-07,Y,Screening,0,2015-01-07,1,Blood,WBC count,x 109 cells/L,8.33702931241377,4.5,11,0
01-010,1,Site 01,2015-01-07,Y,Screening,0,2015-01-07,1,Serum,Albumin,g/L,41.3254235446282,35,55,0
01-010,1,Site 01,2015-01-07,Y,Screening,0,2015-01-07,1,Serum,Alkaline phosphatase (ALP),µkat/L,,0.5,1.5,0
01-010,1,Site 01,2015-01-07,Y,Screening,0,2015-01-07,1,Serum,"Aminotransferase, alanine (ALT)",pkat/L,0.448393674596742,0,0.58,0
01-010,1,Site 01,2015-01-07,Y,Screening,0,2015-01-07,1,Serum,"Aminotransferase, aspartate (AST)",pkat/L,0.139692202573402,0,0.58,0
01-010,1,Site 01,2015-01-07,Y,Screening,0,2015-01-07,1,Serum,Calcium,mmol/L,2.23279220064437,2.2,2.6,0
01-010,1,Site 01,2015-01-07,Y,Screening,0,2015-01-07,1,Serum,Chloride,mmol/L,105.416577744491,98,106,0
01-010,1,Site 01,2015-01-07,Y,Screening,0,2015-01-07,1,Serum,Creatinine,µmol/L,93.6244941150638,61.9,115,0
01-010,1,Site 01,2015-01-07,Y,Screening,0,2015-01-07,1,Serum,Direct Bilirubin,µmol/L,3.445346570351,0,5.1,0
01-010,1,Site 01,2015-01-07,Y,Screening,0,2015-01-07,1,Serum,IgE,mg/L,0.297027118406227,0.1,0.4,0
01-010,1,Site 01,2015-01-07,Y,Screening,0,2015-01-07,1,Serum,Magnesium,mmol/L,1.17050880553079,0.62,0.99,0
01-010,1,Site 01,2015-01-07,Y,Screening,0,2015-01-07,1,Serum,Potassium,mmol/L,3.27479438457536,3.5,5,0
01-010,1,Site 01,2015-01-07,Y,Screening,0,2015-01-07,1,Serum,Sodium,mmol/L,139.34870057182,136,145,0
01-010,1,Site 01,2015-01-07,Y,Screening,0,2015-01-07,1,Serum,Total Bilirubin,µmol/L,19.4924050711753,5.1,20.5,0
01-010,1,Site 01,2015-01-07,Y,Screening,0,2015-01-07,1,Vital Signs,Diastolic Blood Pressure,mmHg,70.6879192883083,60,80,0
01-010,1,Site 01,2015-01-07,Y,Screening,0,2015-01-07,1,Vital Signs,Heart Rate,beats/minute,77.8469441907861,50,80,0
01-010,1,Site 01,2015-01-07,Y,Screening,0,2015-01-07,1,Vital Signs,Respiratory Rate,breaths/minute,15.4501222944132,16,20,0
01-010,1,Site 01,2015-01-07,Y,Screening,0,2015-01-07,1,Vital Signs,Systolic Blood Pressure,mmHg,108.692524502173,90,120,0
01-010,1,Site 01,2015-01-07,Y,Screening,0,2015-01-07,1,Vital Signs,Temperature,°C,37.0317052873515,36.6,37,0
01-010,1,Site 01,2015-01-07,Y,Visit 1,1,2015-02-24,49,Blood,Platelet count,x 109/L,293.564406689882,150,350,1
01-010,1,Site 01,2015-01-07,Y,Visit 1,1,2015-02-24,49,Blood,RBC count,x 1012 cells/L,5.48159494000893,4.2,5.9,1
01-010,1,Site 01,2015-01-07,Y,Visit 1,1,2015-02-24,49,Blood,WBC count,x 109 cells/L,8.47341804478089,4.5,11,1
01-010,1,Site 01,2015-01-07,Y,Visit 1,1,2015-02-24,49,Serum,Albumin,g/L,38.706157572573,35,55,1
01-010,1,Site 01,2015-01-07,Y,Visit 1,1,2015-02-24,49,Serum,Alkaline phosphatase (ALP),µkat/L,1.2125200181326,0.5,1.5,1
01-010,1,Site 01,2015-01-07,Y,Visit 1,1,2015-02-24,49,Serum,"Aminotransferase, alanine (ALT)",pkat/L,0.711096632587242,0,0.58,1
01-010,1,Site 01,2015-01-07,Y,Visit 1,1,2015-02-24,49,Serum,"Aminotransferase, aspartate (AST)",pkat/L,0.733380762376539,0,0.58,1
01-010,1,Site 01,2015-01-07,Y,Visit 1,1,2015-02-24,49,Serum,Calcium,mmol/L,2.48615511484954,2.2,2.6,1
01-010,1,Site 01,2015-01-07,Y,Visit 1,1,2015-02-24,49,Serum,Chloride,mmol/L,,98,106,1
01-010,1,Site 01,2015-01-07,Y,Visit 1,1,2015-02-24,49,Serum,Creatinine,µmol/L,,61.9,115,1
01-010,1,Site 01,2015-01-07,Y,Visit 1,1,2015-02-24,49,Serum,Direct Bilirubin,µmol/L,9.2401733616662,0,5.1,1
01-010,1,Site 01,2015-01-07,Y,Visit 1,1,2015-02-24,49,Serum,IgE,mg/L,0.150003147067264,0.1,0.4,1
01-010,1,Site 01,2015-01-07,Y,Visit 1,1,2015-02-24,49,Serum,Magnesium,mmol/L,0.90926349228523,0.62,0.99,1
01-010,1,Site 01,2015-01-07,Y,Visit 1,1,2015-02-24,49,Serum,Potassium,mmol/L,5.94762798407874,3.5,5,1
01-010,1,Site 01,2015-01-07,Y,Visit 1,1,2015-02-24,49,Serum,Sodium,mmol/L,130.804676549237,136,145,1
01-010,1,Site 01,2015-01-07,Y,Visit 1,1,2015-02-24,49,Serum,Total Bilirubin,µmol/L,16.3691613563297,5.1,20.5,1
01-010,1,Site 01,2015-01-07,Y,Visit 1,1,2015-02-24,49,Vital Signs,Diastolic Blood Pressure,mmHg,57.6399615671457,60,80,1
01-010,1,Site 01,2015-01-07,Y,Visit 1,1,2015-02-24,49,Vital Signs,Heart Rate,beats/minute,53.4349498936716,50,80,1
01-010,1,Site 01,2015-01-07,Y,Visit 1,1,2015-02-24,49,Vital Signs,Respiratory Rate,breaths/minute,21.8290210754095,16,20,1
01-010,1,Site 01,2015-01-07,Y,Visit 1,1,2015-02-24,49,Vital Signs,Systolic Blood Pressure,mmHg,104.712899659193,90,120,1
01-010,1,Site 01,2015-01-07,Y,Visit 1,1,2015-02-24,49,Vital Signs,Temperature,°C,36.9182646029232,36.6,37,1
01-010,1,Site 01,2015-01-07,Y,Visit 2,2,2015-04-23,107,Blood,Platelet count,x 109/L,199.519746117748,150,350,2
01-010,1,Site 01,2015-01-07,Y,Visit 2,2,2015-04-23,107,Blood,RBC count,x 1012 cells/L,3.9910910523331,4.2,5.9,2
01-010,1,Site 01,2015-01-07,Y,Visit 2,2,2015-04-23,107,Blood,WBC count,x 109 cells/L,9.2460178152761,4.5,11,2
01-010,1,Site 01,2015-01-07,Y,Visit 2,2,2015-04-23,107,Serum,Albumin,g/L,32.631713829619,35,55,2
01-010,1,Site 01,2015-01-07,Y,Visit 2,2,2015-04-23,107,Serum,Alkaline phosphatase (ALP),µkat/L,2.01584486079005,0.5,1.5,2
01-010,1,Site 01,2015-01-07,Y,Visit 2,2,2015-04-23,107,Serum,"Aminotransferase, alanine (ALT)",pkat/L,0.0443584143617758,0,0.58,2
01-010,1,Site 01,2015-01-07,Y,Visit 2,2,2015-04-23,107,Serum,"Aminotransferase, aspartate (AST)",pkat/L,0.339726380434973,0,0.58,2
01-010,1,Site 01,2015-01-07,Y,Visit 2,2,2015-04-23,107,Serum,Calcium,mmol/L,2.30868154463111,2.2,2.6,2
01-010,1,Site 01,2015-01-07,Y,Visit 2,2,2015-04-23,107,Serum,Chloride,mmol/L,104.463573146266,98,106,2
01-010,1,Site 01,2015-01-07,Y,Visit 2,2,2015-04-23,107,Serum,Creatinine,µmol/L,122.380707359463,61.9,115,2
01-010,1,Site 01,2015-01-07,Y,Visit 2,2,2015-04-23,107,Serum,Direct Bilirubin,µmol/L,0,0,5.1,2
01-010,1,Site 01,2015-01-07,Y,Visit 2,2,2015-04-23,107,Serum,IgE,mg/L,0.417111289913259,0.1,0.4,2
01-010,1,Site 01,2015-01-07,Y,Visit 2,2,2015-04-23,107,Serum,Magnesium,mmol/L,0.882764979574515,0.62,0.99,2
01-010,1,Site 01,2015-01-07,Y,Visit 2,2,2015-04-23,107,Serum,Potassium,mmol/L,3.93538903708392,3.5,5,2
01-010,1,Site 01,2015-01-07,Y,Visit 2,2,2015-04-23,107,Serum,Sodium,mmol/L,143.488697675654,136,145,2
01-010,1,Site 01,2015-01-07,Y,Visit 2,2,2015-04-23,107,Serum,Total Bilirubin,µmol/L,21.6338690754804,5.1,20.5,2
01-010,1,Site 01,2015-01-07,Y,Visit 2,2,2015-04-23,107,Vital Signs,Diastolic Blood Pressure,mmHg,,60,80,2
01-010,1,Site 01,2015-01-07,Y,Visit 2,2,2015-04-23,107,Vital Signs,Heart Rate,beats/minute,61.0339920985116,50,80,2
01-010,1,Site 01,2015-01-07,Y,Visit 2,2,2015-04-23,107,Vital Signs,Respiratory Rate,breaths/minute,15.963872864891,16,20,2
01-010,1,Site 01,2015-01-07,Y,Visit 2,2,2015-04-23,107,Vital Signs,Systolic Blood Pressure,mmHg,96.5719029338585,90,120,2
01-010,1,Site 01,2015-01-07,Y,Visit 2,2,2015-04-23,107,Vital Signs,Temperature,°C,36.8131983214668,36.6,37,2
01-010,1,Site 01,2015-01-07,Y,Visit 3,3,2015-06-24,169,Blood,Platelet count,x 109/L,269.591930019408,150,350,3
01-010,1,Site 01,2015-01-07,Y,Visit 3,3,2015-06-24,169,Blood,RBC count,x 1012 cells/L,5.2760405744699,4.2,5.9,3
01-010,1,Site 01,2015-01-07,Y,Visit 3,3,2015-06-24,169,Blood,WBC count,x 109 cells/L,10.3066501831789,4.5,11,3
01-010,1,Site 01,2015-01-07,Y,Visit 3,3,2015-06-24,169,Serum,Albumin,g/L,41.2160976445827,35,55,3
01-010,1,Site 01,2015-01-07,Y,Visit 3,3,2015-06-24,169,Serum,Alkaline phosphatase (ALP),µkat/L,1.4842195990109,0.5,1.5,3
01-010,1,Site 01,2015-01-07,Y,Visit 3,3,2015-06-24,169,Serum,"Aminotransferase, alanine (ALT)",pkat/L,0,0,0.58,3
01-010,1,Site 01,2015-01-07,Y,Visit 3,3,2015-06-24,169,Serum,"Aminotransferase, aspartate (AST)",pkat/L,0.086002597987517,0,0.58,3
01-010,1,Site 01,2015-01-07,Y,Visit 3,3,2015-06-24,169,Serum,Calcium,mmol/L,2.13602057488697,2.2,2.6,3
01-010,1,Site 01,2015-01-07,Y,Visit 3,3,2015-06-24,169,Serum,Chloride,mmol/L,99.2847439180112,98,106,3
01-010,1,Site 01,2015-01-07,Y,Visit 3,3,2015-06-24,169,Serum,Creatinine,µmol/L,66.6902249318922,61.9,115,3
01-010,1,Site 01,2015-01-07,Y,Visit 3,3,2015-06-24,169,Serum,Direct Bilirubin,µmol/L,2.86218777639613,0,5.1,3
01-010,1,Site 01,2015-01-07,Y,Visit 3,3,2015-06-24,169,Serum,IgE,mg/L,0.165386713917034,0.1,0.4,3
01-010,1,Site 01,2015-01-07,Y,Visit 3,3,2015-06-24,169,Serum,Magnesium,mmol/L,1.03740504631889,0.62,0.99,3
01-010,1,Site 01,2015-01-07,Y,Visit 3,3,2015-06-24,169,Serum,Potassium,mmol/L,4.47841011264928,3.5,5,3
01-010,1,Site 01,2015-01-07,Y,Visit 3,3,2015-06-24,169,Serum,Sodium,mmol/L,,136,145,3
01-010,1,Site 01,2015-01-07,Y,Visit 3,3,2015-06-24,169,Serum,Total Bilirubin,µmol/L,7.16847473866561,5.1,20.5,3
01-010,1,Site 01,2015-01-07,Y,Visit 3,3,2015-06-24,169,Vital Signs,Diastolic Blood Pressure,mmHg,,60,80,3
01-010,1,Site 01,2015-01-07,Y,Visit 3,3,2015-06-24,169,Vital Signs,Heart Rate,beats/minute,,50,80,3
01-010,1,Site 01,2015-01-07,Y,Visit 3,3,2015-06-24,169,Vital Signs,Respiratory Rate,breaths/minute,20.0183032617693,16,20,3
01-010,1,Site 01,2015-01-07,Y,Visit 3,3,2015-06-24,169,Vital Signs,Systolic Blood Pressure,mmHg,119.876110157485,90,120,3
01-010,1,Site 01,2015-01-07,Y,Visit 3,3,2015-06-24,169,Vital Signs,Temperature,°C,36.6455087658155,36.6,37,3
01-010,1,Site 01,2015-01-07,Y,Visit 4,4,2015-08-19,225,Blood,Platelet count,x 109/L,145.131799789648,150,350,4
01-010,1,Site 01,2015-01-07,Y,Visit 4,4,2015-08-19,225,Blood,RBC count,x 1012 cells/L,3.29783059467057,4.2,5.9,4
01-010,1,Site 01,2015-01-07,Y,Visit 4,4,2015-08-19,225,Blood,WBC count,x 109 cells/L,5.73310590900666,4.5,11,4
01-010,1,Site 01,2015-01-07,Y,Visit 4,4,2015-08-19,225,Serum,Albumin,g/L,48.4120984189148,35,55,4
01-010,1,Site 01,2015-01-07,Y,Visit 4,4,2015-08-19,225,Serum,Alkaline phosphatase (ALP),µkat/L,0.449581056121727,0.5,1.5,4
01-010,1,Site 01,2015-01-07,Y,Visit 4,4,2015-08-19,225,Serum,"Aminotransferase, alanine (ALT)",pkat/L,0.832865337438768,0,0.58,4
01-010,1,Site 01,2015-01-07,Y,Visit 4,4,2015-08-19,225,Serum,"Aminotransferase, aspartate (AST)",pkat/L,,0,0.58,4
01-010,1,Site 01,2015-01-07,Y,Visit 4,4,2015-08-19,225,Serum,Calcium,mmol/L,2.32801871698536,2.2,2.6,4
01-010,1,Site 01,2015-01-07,Y,Visit 4,4,2015-08-19,225,Serum,Chloride,mmol/L,99.98405685475,98,106,4
01-010,1,Site 01,2015-01-07,Y,Visit 4,4,2015-08-19,225,Serum,Creatinine,µmol/L,105.841093979139,61.9,115,4
01-010,1,Site 01,2015-01-07,Y,Visit 4,4,2015-08-19,225,Serum,Direct Bilirubin,µmol/L,3.45406348208741,0,5.1,4
01-010,1,Site 01,2015-01-07,Y,Visit 4,4,2015-08-19,225,Serum,IgE,mg/L,0.196677511175779,0.1,0.4,4
01-010,1,Site 01,2015-01-07,Y,Visit 4,4,2015-08-19,225,Serum,Magnesium,mmol/L,0.711609818651324,0.62,0.99,4
01-010,1,Site 01,2015-01-07,Y,Visit 4,4,2015-08-19,225,Serum,Potassium,mmol/L,6.41357971814285,3.5,5,4
01-010,1,Site 01,2015-01-07,Y,Visit 4,4,2015-08-19,225,Serum,Sodium,mmol/L,140.801999724584,136,145,4
01-010,1,Site 01,2015-01-07,Y,Visit 4,4,2015-08-19,225,Serum,Total Bilirubin,µmol/L,,5.1,20.5,4
01-010,1,Site 01,2015-01-07,Y,Visit 4,4,2015-08-19,225,Vital Signs,Diastolic Blood Pressure,mmHg,40.8149153498489,60,80,4
01-010,1,Site 01,2015-01-07,Y,Visit 4,4,2015-08-19,225,Vital Signs,Heart Rate,beats/minute,54.7712076636504,50,80,4
01-010,1,Site 01,2015-01-07,Y,Visit 4,4,2015-08-19,225,Vital Signs,Respiratory Rate,breaths/minute,18.7601451290191,16,20,4
01-010,1,Site 01,2015-01-07,Y,Visit 4,4,2015-08-19,225,Vital Signs,Systolic Blood Pressure,mmHg,,90,120,4
01-010,1,Site 01,2015-01-07,Y,Visit 4,4,2015-08-19,225,Vital Signs,Temperature,°C,36.9802768675061,36.6,37,4
01-010,1,Site 01,2015-01-07,Y,Visit 5,5,2015-10-11,278,Blood,Platelet count,x 109/L,154.932105017951,150,350,5
01-010,1,Site 01,2015-01-07,Y,Visit 5,5,2015-10-11,278,Blood,RBC count,x 1012 cells/L,3.31114350875008,4.2,5.9,5
01-010,1,Site 01,2015-01-07,Y,Visit 5,5,2015-10-11,278,Blood,WBC count,x 109 cells/L,,4.5,11,5
01-010,1,Site 01,2015-01-07,Y,Visit 5,5,2015-10-11,278,Serum,Albumin,g/L,40.6658296096551,35,55,5
01-010,1,Site 01,2015-01-07,Y,Visit 5,5,2015-10-11,278,Serum,Alkaline phosphatase (ALP),µkat/L,0.45660681855209,0.5,1.5,5
01-010,1,Site 01,2015-01-07,Y,Visit 5,5,2015-10-11,278,Serum,"Aminotransferase, alanine (ALT)",pkat/L,0.568743674554334,0,0.58,5
01-010,1,Site 01,2015-01-07,Y,Visit 5,5,2015-10-11,278,Serum,"Aminotransferase, aspartate (AST)",pkat/L,0,0,0.58,5
01-010,1,Site 01,2015-01-07,Y,Visit 5,5,2015-10-11,278,Serum,Calcium,mmol/L,2.23216156600483,2.2,2.6,5
01-010,1,Site 01,2015-01-07,Y,Visit 5,5,2015-10-11,278,Serum,Chloride,mmol/L,98.4092672539712,98,106,5
01-010,1,Site 01,2015-01-07,Y,Visit 5,5,2015-10-11,278,Serum,Creatinine,µmol/L,104.071316327917,61.9,115,5
01-010,1,Site 01,2015-01-07,Y,Visit 5,5,2015-10-11,278,Serum,Direct Bilirubin,µmol/L,0,0,5.1,5
01-010,1,Site 01,2015-01-07,Y,Visit 5,5,2015-10-11,278,Serum,IgE,mg/L,0.179667996418376,0.1,0.4,5
01-010,1,Site 01,2015-01-07,Y,Visit 5,5,2015-10-11,278,Serum,Magnesium,mmol/L,0.76199434522219,0.62,0.99,5
01-010,1,Site 01,2015-01-07,Y,Visit 5,5,2015-10-11,278,Serum,Potassium,mmol/L,,3.5,5,5
01-010,1,Site 01,2015-01-07,Y,Visit 5,5,2015-10-11,278,Serum,Sodium,mmol/L,,136,145,5
01-010,1,Site 01,2015-01-07,Y,Visit 5,5,2015-10-11,278,Serum,Total Bilirubin,µmol/L,18.1648829183509,5.1,20.5,5
01-010,1,Site 01,2015-01-07,Y,Visit 5,5,2015-10-11,278,Vital Signs,Diastolic Blood Pressure,mmHg,58.9834553116034,60,80,5
01-010,1,Site 01,2015-01-07,Y,Visit 5,5,2015-10-11,278,Vital Signs,Heart Rate,beats/minute,72.9229654944211,50,80,5
01-010,1,Site 01,2015-01-07,Y,Visit 5,5,2015-10-11,278,Vital Signs,Respiratory Rate,breaths/minute,19.2201554568137,16,20,5
01-010,1,Site 01,2015-01-07,Y,Visit 5,5,2015-10-11,278,Vital Signs,Systolic Blood Pressure,mmHg,78.9938035792794,90,120,5
01-010,1,Site 01,2015-01-07,Y,Visit 5,5,2015-10-11,278,Vital Signs,Temperature,°C,37.0347546802342,36.6,37,5
01-010,1,Site 01,2015-01-07,Y,Visit 6,6,2015-12-01,329,Blood,Platelet count,x 109/L,299.266591208714,150,350,6
01-010,1,Site 01,2015-01-07,Y,Visit 6,6,2015-12-01,329,Blood,RBC count,x 1012 cells/L,,4.2,5.9,6
01-010,1,Site 01,2015-01-07,Y,Visit 6,6,2015-12-01,329,Blood,WBC count,x 109 cells/L,3.26611765775871,4.5,11,6
01-010,1,Site 01,2015-01-07,Y,Visit 6,6,2015-12-01,329,Serum,Albumin,g/L,36.0853432682371,35,55,6
01-010,1,Site 01,2015-01-07,Y,Visit 6,6,2015-12-01,329,Serum,Alkaline phosphatase (ALP),µkat/L,1.08422997012434,0.5,1.5,6
01-010,1,Site 01,2015-01-07,Y,Visit 6,6,2015-12-01,329,Serum,"Aminotransferase, alanine (ALT)",pkat/L,,0,0.58,6
01-010,1,Site 01,2015-01-07,Y,Visit 6,6,2015-12-01,329,Serum,"Aminotransferase, aspartate (AST)",pkat/L,0.513201285077685,0,0.58,6
01-010,1,Site 01,2015-01-07,Y,Visit 6,6,2015-12-01,329,Serum,Calcium,mmol/L,,2.2,2.6,6
01-010,1,Site 01,2015-01-07,Y,Visit 6,6,2015-12-01,329,Serum,Chloride,mmol/L,99.4942921124847,98,106,6
01-010,1,Site 01,2015-01-07,Y,Visit 6,6,2015-12-01,329,Serum,Creatinine,µmol/L,80.1224179551446,61.9,115,6
01-010,1,Site 01,2015-01-07,Y,Visit 6,6,2015-12-01,329,Serum,Direct Bilirubin,µmol/L,0,0,5.1,6
01-010,1,Site 01,2015-01-07,Y,Visit 6,6,2015-12-01,329,Serum,IgE,mg/L,0.0223341680517957,0.1,0.4,6
01-010,1,Site 01,2015-01-07,Y,Visit 6,6,2015-12-01,329,Serum,Magnesium,mmol/L,,0.62,0.99,6
01-010,1,Site 01,2015-01-07,Y,Visit 6,6,2015-12-01,329,Serum,Potassium,mmol/L,4.05807642018401,3.5,5,6
01-010,1,Site 01,2015-01-07,Y,Visit 6,6,2015-12-01,329,Serum,Sodium,mmol/L,134.959291772303,136,145,6
01-010,1,Site 01,2015-01-07,Y,Visit 6,6,2015-12-01,329,Serum,Total Bilirubin,µmol/L,12.0615539843948,5.1,20.5,6
01-010,1,Site 01,2015-01-07,Y,Visit 6,6,2015-12-01,329,Vital Signs,Diastolic Blood Pressure,mmHg,86.8742422752959,60,80,6
01-010,1,Site 01,2015-01-07,Y,Visit 6,6,2015-12-01,329,Vital Signs,Heart Rate,beats/minute,42.0407858472698,50,80,6
01-010,1,Site 01,2015-01-07,Y,Visit 6,6,2015-12-01,329,Vital Signs,Respiratory Rate,breaths/minute,17.5985607418236,16,20,6
01-010,1,Site 01,2015-01-07,Y,Visit 6,6,2015-12-01,329,Vital Signs,Systolic Blood Pressure,mmHg,111.898085572383,90,120,6
01-010,1,Site 01,2015-01-07,Y,Visit 6,6,2015-12-01,329,Vital Signs,Temperature,°C,36.9888728681288,36.6,37,6
01-010,1,Site 01,2015-01-07,Y,End of Study,7,2016-01-01,360,Blood,Platelet count,x 109/L,142.997382015819,150,350,7
01-010,1,Site 01,2015-01-07,Y,End of Study,7,2016-01-01,360,Blood,RBC count,x 1012 cells/L,5.39616207887841,4.2,5.9,7
01-010,1,Site 01,2015-01-07,Y,End of Study,7,2016-01-01,360,Blood,WBC count,x 109 cells/L,7.9111943066213,4.5,11,7
01-010,1,Site 01,2015-01-07,Y,End of Study,7,2016-01-01,360,Serum,Albumin,g/L,37.7088646831776,35,55,7
01-010,1,Site 01,2015-01-07,Y,End of Study,7,2016-01-01,360,Serum,Alkaline phosphatase (ALP),µkat/L,1.09318046048421,0.5,1.5,7
01-010,1,Site 01,2015-01-07,Y,End of Study,7,2016-01-01,360,Serum,"Aminotransferase, alanine (ALT)",pkat/L,0,0,0.58,7
01-010,1,Site 01,2015-01-07,Y,End of Study,7,2016-01-01,360,Serum,"Aminotransferase, aspartate (AST)",pkat/L,0,0,0.58,7
01-010,1,Site 01,2015-01-07,Y,End of Study,7,2016-01-01,360,Serum,Calcium,mmol/L,2.44631803627623,2.2,2.6,7
01-010,1,Site 01,2015-01-07,Y,End of Study,7,2016-01-01,360,Serum,Chloride,mmol/L,,98,106,7
01-010,1,Site 01,2015-01-07,Y,End of Study,7,2016-01-01,360,Serum,Creatinine,µmol/L,92.3655766419012,61.9,115,7
01-010,1,Site 01,2015-01-07,Y,End of Study,7,2016-01-01,360,Serum,Direct Bilirubin,µmol/L,,0,5.1,7
01-010,1,Site 01,2015-01-07,Y,End of Study,7,2016-01-01,360,Serum,IgE,mg/L,0.368246902244521,0.1,0.4,7
01-010,1,Site 01,2015-01-07,Y,End of Study,7,2016-01-01,360,Serum,Magnesium,mmol/L,1.11136076320552,0.62,0.99,7
01-010,1,Site 01,2015-01-07,Y,End of Study,7,2016-01-01,360,Serum,Potassium,mmol/L,3.7430019837222,3.5,5,7
01-010,1,Site 01,2015-01-07,Y,End of Study,7,2016-01-01,360,Serum,Sodium,mmol/L,138.50723259909,136,145,7
01-010,1,Site 01,2015-01-07,Y,End of Study,7,2016-01-01,360,Serum,Total Bilirubin,µmol/L,20.0994588045153,5.1,20.5,7
01-010,1,Site 01,2015-01-07,Y,End of Study,7,2016-01-01,360,Vital Signs,Diastolic Blood Pressure,mmHg,73.8368628916963,60,80,7
01-010,1,Site 01,2015-01-07,Y,End of Study,7,2016-01-01,360,Vital Signs,Heart Rate,beats/minute,64.2092948580069,50,80,7
01-010,1,Site 01,2015-01-07,Y,End of Study,7,2016-01-01,360,Vital Signs,Respiratory Rate,breaths/minute,21.5819575221692,16,20,7
01-010,1,Site 01,2015-01-07,Y,End of Study,7,2016-01-01,360,Vital Signs,Systolic Blood Pressure,mmHg,104.90560219177,90,120,7
01-010,1,Site 01,2015-01-07,Y,End of Study,7,2016-01-01,360,Vital Signs,Temperature,°C,36.4853245395617,36.6,37,7
01-011,1,Site 01,2015-10-04,Y,Screening,0,2015-10-04,1,Blood,Platelet count,x 109/L,334.566716134667,150,350,0
01-011,1,Site 01,2015-10-04,Y,Screening,0,2015-10-04,1,Blood,RBC count,x 1012 cells/L,5.9193404765549,4.2,5.9,0
01-011,1,Site 01,2015-10-04,Y,Screening,0,2015-10-04,1,Blood,WBC count,x 109 cells/L,11.5163757917716,4.5,11,0
01-011,1,Site 01,2015-10-04,Y,Screening,0,2015-10-04,1,Serum,Albumin,g/L,53.508340099935,35,55,0
01-011,1,Site 01,2015-10-04,Y,Screening,0,2015-10-04,1,Serum,Alkaline phosphatase (ALP),µkat/L,,0.5,1.5,0
01-011,1,Site 01,2015-10-04,Y,Screening,0,2015-10-04,1,Serum,"Aminotransferase, alanine (ALT)",pkat/L,0,0,0.58,0
01-011,1,Site 01,2015-10-04,Y,Screening,0,2015-10-04,1,Serum,"Aminotransferase, aspartate (AST)",pkat/L,0.55800857798992,0,0.58,0
01-011,1,Site 01,2015-10-04,Y,Screening,0,2015-10-04,1,Serum,Calcium,mmol/L,2.26132147411838,2.2,2.6,0
01-011,1,Site 01,2015-10-04,Y,Screening,0,2015-10-04,1,Serum,Chloride,mmol/L,100.551675723357,98,106,0
01-011,1,Site 01,2015-10-04,Y,Screening,0,2015-10-04,1,Serum,Creatinine,µmol/L,50.0836783041031,61.9,115,0
01-011,1,Site 01,2015-10-04,Y,Screening,0,2015-10-04,1,Serum,Direct Bilirubin,µmol/L,3.40394297466829,0,5.1,0
01-011,1,Site 01,2015-10-04,Y,Screening,0,2015-10-04,1,Serum,IgE,mg/L,0.325503900037591,0.1,0.4,0
01-011,1,Site 01,2015-10-04,Y,Screening,0,2015-10-04,1,Serum,Magnesium,mmol/L,0.881433818828641,0.62,0.99,0
01-011,1,Site 01,2015-10-04,Y,Screening,0,2015-10-04,1,Serum,Potassium,mmol/L,4.10894754594577,3.5,5,0
01-011,1,Site 01,2015-10-04,Y,Screening,0,2015-10-04,1,Serum,Sodium,mmol/L,133.473757218411,136,145,0
01-011,1,Site 01,2015-10-04,Y,Screening,0,2015-10-04,1,Serum,Total Bilirubin,µmol/L,19.4234634388753,5.1,20.5,0
01-011,1,Site 01,2015-10-04,Y,Screening,0,2015-10-04,1,Vital Signs,Diastolic Blood Pressure,mmHg,93.432793460993,60,80,0
01-011,1,Site 01,2015-10-04,Y,Screening,0,2015-10-04,1,Vital Signs,Heart Rate,beats/minute,56.6788772948486,50,80,0
01-011,1,Site 01,2015-10-04,Y,Screening,0,2015-10-04,1,Vital Signs,Respiratory Rate,breaths/minute,20.9241524764192,16,20,0
01-011,1,Site 01,2015-10-04,Y,Screening,0,2015-10-04,1,Vital Signs,Systolic Blood Pressure,mmHg,93.7935874479927,90,120,0
01-011,1,Site 01,2015-10-04,Y,Screening,0,2015-10-04,1,Vital Signs,Temperature,°C,36.8062459435357,36.6,37,0
01-011,1,Site 01,2015-10-04,Y,Visit 1,1,2015-12-03,61,Blood,Platelet count,x 109/L,284.680623873726,150,350,1
01-011,1,Site 01,2015-10-04,Y,Visit 1,1,2015-12-03,61,Blood,RBC count,x 1012 cells/L,5.35788076656152,4.2,5.9,1
01-011,1,Site 01,2015-10-04,Y,Visit 1,1,2015-12-03,61,Blood,WBC count,x 109 cells/L,9.22711846862476,4.5,11,1
01-011,1,Site 01,2015-10-04,Y,Visit 1,1,2015-12-03,61,Serum,Albumin,g/L,54.7488325608572,35,55,1
01-011,1,Site 01,2015-10-04,Y,Visit 1,1,2015-12-03,61,Serum,Alkaline phosphatase (ALP),µkat/L,1.39217409521479,0.5,1.5,1
01-011,1,Site 01,2015-10-04,Y,Visit 1,1,2015-12-03,61,Serum,"Aminotransferase, alanine (ALT)",pkat/L,0,0,0.58,1
01-011,1,Site 01,2015-10-04,Y,Visit 1,1,2015-12-03,61,Serum,"Aminotransferase, aspartate (AST)",pkat/L,0.697009351967726,0,0.58,1
01-011,1,Site 01,2015-10-04,Y,Visit 1,1,2015-12-03,61,Serum,Calcium,mmol/L,,2.2,2.6,1
01-011,1,Site 01,2015-10-04,Y,Visit 1,1,2015-12-03,61,Serum,Chloride,mmol/L,,98,106,1
01-011,1,Site 01,2015-10-04,Y,Visit 1,1,2015-12-03,61,Serum,Creatinine,µmol/L,98.4375923380512,61.9,115,1
01-011,1,Site 01,2015-10-04,Y,Visit 1,1,2015-12-03,61,Serum,Direct Bilirubin,µmol/L,4.60488225701572,0,5.1,1
01-011,1,Site 01,2015-10-04,Y,Visit 1,1,2015-12-03,61,Serum,IgE,mg/L,0.382048056278394,0.1,0.4,1
01-011,1,Site 01,2015-10-04,Y,Visit 1,1,2015-12-03,61,Serum,Magnesium,mmol/L,0.805825949302998,0.62,0.99,1
01-011,1,Site 01,2015-10-04,Y,Visit 1,1,2015-12-03,61,Serum,Potassium,mmol/L,5.3540763718441,3.5,5,1
01-011,1,Site 01,2015-10-04,Y,Visit 1,1,2015-12-03,61,Serum,Sodium,mmol/L,137.61843980963,136,145,1
01-011,1,Site 01,2015-10-04,Y,Visit 1,1,2015-12-03,61,Serum,Total Bilirubin,µmol/L,14.1730623345677,5.1,20.5,1
01-011,1,Site 01,2015-10-04,Y,Visit 1,1,2015-12-03,61,Vital Signs,Diastolic Blood Pressure,mmHg,70.1799361759144,60,80,1
01-011,1,Site 01,2015-10-04,Y,Visit 1,1,2015-12-03,61,Vital Signs,Heart Rate,beats/minute,52.7521073102317,50,80,1
01-011,1,Site 01,2015-10-04,Y,Visit 1,1,2015-12-03,61,Vital Signs,Respiratory Rate,breaths/minute,17.3249332378392,16,20,1
01-011,1,Site 01,2015-10-04,Y,Visit 1,1,2015-12-03,61,Vital Signs,Systolic Blood Pressure,mmHg,107.84574357055,90,120,1
01-011,1,Site 01,2015-10-04,Y,Visit 1,1,2015-12-03,61,Vital Signs,Temperature,°C,36.8148661976426,36.6,37,1
01-011,1,Site 01,2015-10-04,Y,Unscheduled 1.1,1.1,2015-12-11,69,Blood,Platelet count,x 109/L,203.794332716826,150,350,1.1
01-011,1,Site 01,2015-10-04,Y,Unscheduled 1.1,1.1,2015-12-11,69,Blood,RBC count,x 1012 cells/L,5.1923194973067,4.2,5.9,1.1
01-011,1,Site 01,2015-10-04,Y,Unscheduled 1.1,1.1,2015-12-11,69,Blood,WBC count,x 109 cells/L,6.79530151043754,4.5,11,1.1
01-011,1,Site 01,2015-10-04,Y,Unscheduled 1.1,1.1,2015-12-11,69,Serum,Albumin,g/L,48.210815045983,35,55,1.1
01-011,1,Site 01,2015-10-04,Y,Unscheduled 1.1,1.1,2015-12-11,69,Serum,Alkaline phosphatase (ALP),µkat/L,1.54964807319185,0.5,1.5,1.1
01-011,1,Site 01,2015-10-04,Y,Unscheduled 1.1,1.1,2015-12-11,69,Serum,"Aminotransferase, alanine (ALT)",pkat/L,0.397614827302813,0,0.58,1.1
01-011,1,Site 01,2015-10-04,Y,Unscheduled 1.1,1.1,2015-12-11,69,Serum,"Aminotransferase, aspartate (AST)",pkat/L,,0,0.58,1.1
01-011,1,Site 01,2015-10-04,Y,Unscheduled 1.1,1.1,2015-12-11,69,Serum,Calcium,mmol/L,2.54212672888793,2.2,2.6,1.1
01-011,1,Site 01,2015-10-04,Y,Unscheduled 1.1,1.1,2015-12-11,69,Serum,Chloride,mmol/L,106.85495252196,98,106,1.1
01-011,1,Site 01,2015-10-04,Y,Unscheduled 1.1,1.1,2015-12-11,69,Serum,Creatinine,µmol/L,160.983750847511,61.9,115,1.1
01-011,1,Site 01,2015-10-04,Y,Unscheduled 1.1,1.1,2015-12-11,69,Serum,Direct Bilirubin,µmol/L,2.56863756598421,0,5.1,1.1
01-011,1,Site 01,2015-10-04,Y,Unscheduled 1.1,1.1,2015-12-11,69,Serum,IgE,mg/L,0.16806568075975,0.1,0.4,1.1
01-011,1,Site 01,2015-10-04,Y,Unscheduled 1.1,1.1,2015-12-11,69,Serum,Magnesium,mmol/L,0.495864172533534,0.62,0.99,1.1
01-011,1,Site 01,2015-10-04,Y,Unscheduled 1.1,1.1,2015-12-11,69,Serum,Potassium,mmol/L,4.69490280119648,3.5,5,1.1
01-011,1,Site 01,2015-10-04,Y,Unscheduled 1.1,1.1,2015-12-11,69,Serum,Sodium,mmol/L,150.680749650559,136,145,1.1
01-011,1,Site 01,2015-10-04,Y,Unscheduled 1.1,1.1,2015-12-11,69,Serum,Total Bilirubin,µmol/L,13.8299242374563,5.1,20.5,1.1
01-011,1,Site 01,2015-10-04,Y,Unscheduled 1.1,1.1,2015-12-11,69,Vital Signs,Diastolic Blood Pressure,mmHg,74.315086809284,60,80,1.1
01-011,1,Site 01,2015-10-04,Y,Unscheduled 1.1,1.1,2015-12-11,69,Vital Signs,Heart Rate,beats/minute,74.5019825042593,50,80,1.1
01-011,1,Site 01,2015-10-04,Y,Unscheduled 1.1,1.1,2015-12-11,69,Vital Signs,Respiratory Rate,breaths/minute,14.8587640061044,16,20,1.1
01-011,1,Site 01,2015-10-04,Y,Unscheduled 1.1,1.1,2015-12-11,69,Vital Signs,Systolic Blood Pressure,mmHg,102.442924808414,90,120,1.1
01-011,1,Site 01,2015-10-04,Y,Unscheduled 1.1,1.1,2015-12-11,69,Vital Signs,Temperature,°C,36.884462171088,36.6,37,1.1
01-011,1,Site 01,2015-10-04,Y,Unscheduled 1.2,1.2,2015-12-18,76,Blood,Platelet count,x 109/L,92.002993733882,150,350,1.2
01-011,1,Site 01,2015-10-04,Y,Unscheduled 1.2,1.2,2015-12-18,76,Blood,RBC count,x 1012 cells/L,5.23988448350527,4.2,5.9,1.2
01-011,1,Site 01,2015-10-04,Y,Unscheduled 1.2,1.2,2015-12-18,76,Blood,WBC count,x 109 cells/L,9.24167401339559,4.5,11,1.2
01-011,1,Site 01,2015-10-04,Y,Unscheduled 1.2,1.2,2015-12-18,76,Serum,Albumin,g/L,50.9571283588824,35,55,1.2
01-011,1,Site 01,2015-10-04,Y,Unscheduled 1.2,1.2,2015-12-18,76,Serum,Alkaline phosphatase (ALP),µkat/L,0.565226745868814,0.5,1.5,1.2
01-011,1,Site 01,2015-10-04,Y,Unscheduled 1.2,1.2,2015-12-18,76,Serum,"Aminotransferase, alanine (ALT)",pkat/L,0.235670843791173,0,0.58,1.2
01-011,1,Site 01,2015-10-04,Y,Unscheduled 1.2,1.2,2015-12-18,76,Serum,"Aminotransferase, aspartate (AST)",pkat/L,0.690554280139026,0,0.58,1.2
01-011,1,Site 01,2015-10-04,Y,Unscheduled 1.2,1.2,2015-12-18,76,Serum,Calcium,mmol/L,2.58873181225916,2.2,2.6,1.2
01-011,1,Site 01,2015-10-04,Y,Unscheduled 1.2,1.2,2015-12-18,76,Serum,Chloride,mmol/L,103.260507054018,98,106,1.2
01-011,1,Site 01,2015-10-04,Y,Unscheduled 1.2,1.2,2015-12-18,76,Serum,Creatinine,µmol/L,50.0735147951013,61.9,115,1.2
01-011,1,Site 01,2015-10-04,Y,Unscheduled 1.2,1.2,2015-12-18,76,Serum,Direct Bilirubin,µmol/L,0,0,5.1,1.2
01-011,1,Site 01,2015-10-04,Y,Unscheduled 1.2,1.2,2015-12-18,76,Serum,IgE,mg/L,0.168876275592487,0.1,0.4,1.2
01-011,1,Site 01,2015-10-04,Y,Unscheduled 1.2,1.2,2015-12-18,76,Serum,Magnesium,mmol/L,0.624421030191259,0.62,0.99,1.2
01-011,1,Site 01,2015-10-04,Y,Unscheduled 1.2,1.2,2015-12-18,76,Serum,Potassium,mmol/L,3.49451582695725,3.5,5,1.2
01-011,1,Site 01,2015-10-04,Y,Unscheduled 1.2,1.2,2015-12-18,76,Serum,Sodium,mmol/L,144.222311521401,136,145,1.2
01-011,1,Site 01,2015-10-04,Y,Unscheduled 1.2,1.2,2015-12-18,76,Serum,Total Bilirubin,µmol/L,18.1395806923214,5.1,20.5,1.2
01-011,1,Site 01,2015-10-04,Y,Unscheduled 1.2,1.2,2015-12-18,76,Vital Signs,Diastolic Blood Pressure,mmHg,57.4671147171301,60,80,1.2
01-011,1,Site 01,2015-10-04,Y,Unscheduled 1.2,1.2,2015-12-18,76,Vital Signs,Heart Rate,beats/minute,80.5332502290207,50,80,1.2
01-011,1,Site 01,2015-10-04,Y,Unscheduled 1.2,1.2,2015-12-18,76,Vital Signs,Respiratory Rate,breaths/minute,24.6981071727468,16,20,1.2
01-011,1,Site 01,2015-10-04,Y,Unscheduled 1.2,1.2,2015-12-18,76,Vital Signs,Systolic Blood Pressure,mmHg,123.280686828521,90,120,1.2
01-011,1,Site 01,2015-10-04,Y,Unscheduled 1.2,1.2,2015-12-18,76,Vital Signs,Temperature,°C,36.9132640476067,36.6,37,1.2
01-011,1,Site 01,2015-10-04,Y,Visit 2,2,2016-01-24,113,Blood,Platelet count,x 109/L,437.527892869669,150,350,2
01-011,1,Site 01,2015-10-04,Y,Visit 2,2,2016-01-24,113,Blood,RBC count,x 1012 cells/L,3.91351626664175,4.2,5.9,2
01-011,1,Site 01,2015-10-04,Y,Visit 2,2,2016-01-24,113,Blood,WBC count,x 109 cells/L,5.39484837648262,4.5,11,2
01-011,1,Site 01,2015-10-04,Y,Visit 2,2,2016-01-24,113,Serum,Albumin,g/L,37.9477886225666,35,55,2
01-011,1,Site 01,2015-10-04,Y,Visit 2,2,2016-01-24,113,Serum,Alkaline phosphatase (ALP),µkat/L,0.407567662910237,0.5,1.5,2
01-011,1,Site 01,2015-10-04,Y,Visit 2,2,2016-01-24,113,Serum,"Aminotransferase, alanine (ALT)",pkat/L,0.591418862238931,0,0.58,2
01-011,1,Site 01,2015-10-04,Y,Visit 2,2,2016-01-24,113,Serum,"Aminotransferase, aspartate (AST)",pkat/L,0.0543951050215044,0,0.58,2
01-011,1,Site 01,2015-10-04,Y,Visit 2,2,2016-01-24,113,Serum,Calcium,mmol/L,2.21496837879997,2.2,2.6,2
01-011,1,Site 01,2015-10-04,Y,Visit 2,2,2016-01-24,113,Serum,Chloride,mmol/L,100.042737527631,98,106,2
01-011,1,Site 01,2015-10-04,Y,Visit 2,2,2016-01-24,113,Serum,Creatinine,µmol/L,62.1049071491595,61.9,115,2
01-011,1,Site 01,2015-10-04,Y,Visit 2,2,2016-01-24,113,Serum,Direct Bilirubin,µmol/L,0.0623471543792227,0,5.1,2
01-011,1,Site 01,2015-10-04,Y,Visit 2,2,2016-01-24,113,Serum,IgE,mg/L,0.0378441573795972,0.1,0.4,2
01-011,1,Site 01,2015-10-04,Y,Visit 2,2,2016-01-24,113,Serum,Magnesium,mmol/L,0.994018893158595,0.62,0.99,2
01-011,1,Site 01,2015-10-04,Y,Visit 2,2,2016-01-24,113,Serum,Potassium,mmol/L,4.2438125543399,3.5,5,2
01-011,1,Site 01,2015-10-04,Y,Visit 2,2,2016-01-24,113,Serum,Sodium,mmol/L,135.850433432113,136,145,2
01-011,1,Site 01,2015-10-04,Y,Visit 2,2,2016-01-24,113,Serum,Total Bilirubin,µmol/L,22.2382296309899,5.1,20.5,2
01-011,1,Site 01,2015-10-04,Y,Visit 2,2,2016-01-24,113,Vital Signs,Diastolic Blood Pressure,mmHg,,60,80,2
01-011,1,Site 01,2015-10-04,Y,Visit 2,2,2016-01-24,113,Vital Signs,Heart Rate,beats/minute,60.45419650004,50,80,2
01-011,1,Site 01,2015-10-04,Y,Visit 2,2,2016-01-24,113,Vital Signs,Respiratory Rate,breaths/minute,17.8053162580679,16,20,2
01-011,1,Site 01,2015-10-04,Y,Visit 2,2,2016-01-24,113,Vital Signs,Systolic Blood Pressure,mmHg,113.671582464601,90,120,2
01-011,1,Site 01,2015-10-04,Y,Visit 2,2,2016-01-24,113,Vital Signs,Temperature,°C,,36.6,37,2
01-011,1,Site 01,2015-10-04,Y,Visit 3,3,2016-03-26,175,Blood,Platelet count,x 109/L,262.867914237524,150,350,3
01-011,1,Site 01,2015-10-04,Y,Visit 3,3,2016-03-26,175,Blood,RBC count,x 1012 cells/L,4.6918722068319,4.2,5.9,3
01-011,1,Site 01,2015-10-04,Y,Visit 3,3,2016-03-26,175,Blood,WBC count,x 109 cells/L,12.603647352557,4.5,11,3
01-011,1,Site 01,2015-10-04,Y,Visit 3,3,2016-03-26,175,Serum,Albumin,g/L,50.1528397706711,35,55,3
01-011,1,Site 01,2015-10-04,Y,Visit 3,3,2016-03-26,175,Serum,Alkaline phosphatase (ALP),µkat/L,0.95092809288658,0.5,1.5,3
01-011,1,Site 01,2015-10-04,Y,Visit 3,3,2016-03-26,175,Serum,"Aminotransferase, alanine (ALT)",pkat/L,0.110746657652598,0,0.58,3
01-011,1,Site 01,2015-10-04,Y,Visit 3,3,2016-03-26,175,Serum,"Aminotransferase, aspartate (AST)",pkat/L,0.817995448327127,0,0.58,3
01-011,1,Site 01,2015-10-04,Y,Visit 3,3,2016-03-26,175,Serum,Calcium,mmol/L,2.25186818785108,2.2,2.6,3
01-011,1,Site 01,2015-10-04,Y,Visit 3,3,2016-03-26,175,Serum,Chloride,mmol/L,102.410186123984,98,106,3
01-011,1,Site 01,2015-10-04,Y,Visit 3,3,2016-03-26,175,Serum,Creatinine,µmol/L,57.3695303961827,61.9,115,3
01-011,1,Site 01,2015-10-04,Y,Visit 3,3,2016-03-26,175,Serum,Direct Bilirubin,µmol/L,7.95130391256018,0,5.1,3
01-011,1,Site 01,2015-10-04,Y,Visit 3,3,2016-03-26,175,Serum,IgE,mg/L,0.380821228502852,0.1,0.4,3
01-011,1,Site 01,2015-10-04,Y,Visit 3,3,2016-03-26,175,Serum,Magnesium,mmol/L,0.819502497161127,0.62,0.99,3
01-011,1,Site 01,2015-10-04,Y,Visit 3,3,2016-03-26,175,Serum,Potassium,mmol/L,5.39686925479143,3.5,5,3
01-011,1,Site 01,2015-10-04,Y,Visit 3,3,2016-03-26,175,Serum,Sodium,mmol/L,,136,145,3
01-011,1,Site 01,2015-10-04,Y,Visit 3,3,2016-03-26,175,Serum,Total Bilirubin,µmol/L,24.3631093606588,5.1,20.5,3
01-011,1,Site 01,2015-10-04,Y,Visit 3,3,2016-03-26,175,Vital Signs,Diastolic Blood Pressure,mmHg,,60,80,3
01-011,1,Site 01,2015-10-04,Y,Visit 3,3,2016-03-26,175,Vital Signs,Heart Rate,beats/minute,,50,80,3
01-011,1,Site 01,2015-10-04,Y,Visit 3,3,2016-03-26,175,Vital Signs,Respiratory Rate,breaths/minute,15.2289636967107,16,20,3
01-011,1,Site 01,2015-10-04,Y,Visit 3,3,2016-03-26,175,Vital Signs,Systolic Blood Pressure,mmHg,134.93084603421,90,120,3
01-011,1,Site 01,2015-10-04,Y,Visit 3,3,2016-03-26,175,Vital Signs,Temperature,°C,37.2579096480619,36.6,37,3
01-011,1,Site 01,2015-10-04,Y,Visit 4,4,2016-05-19,229,Blood,Platelet count,x 109/L,171.022241689893,150,350,4
01-011,1,Site 01,2015-10-04,Y,Visit 4,4,2016-05-19,229,Blood,RBC count,x 1012 cells/L,6.05304708541116,4.2,5.9,4
01-011,1,Site 01,2015-10-04,Y,Visit 4,4,2016-05-19,229,Blood,WBC count,x 109 cells/L,9.92524106921706,4.5,11,4
01-011,1,Site 01,2015-10-04,Y,Visit 4,4,2016-05-19,229,Serum,Albumin,g/L,53.5557173163971,35,55,4
01-011,1,Site 01,2015-10-04,Y,Visit 4,4,2016-05-19,229,Serum,Alkaline phosphatase (ALP),µkat/L,0.804751264716012,0.5,1.5,4
01-011,1,Site 01,2015-10-04,Y,Visit 4,4,2016-05-19,229,Serum,"Aminotransferase, alanine (ALT)",pkat/L,0.0321040780476086,0,0.58,4
01-011,1,Site 01,2015-10-04,Y,Visit 4,4,2016-05-19,229,Serum,"Aminotransferase, aspartate (AST)",pkat/L,0.76444015736058,0,0.58,4
01-011,1,Site 01,2015-10-04,Y,Visit 4,4,2016-05-19,229,Serum,Calcium,mmol/L,2.48384466622405,2.2,2.6,4
01-011,1,Site 01,2015-10-04,Y,Visit 4,4,2016-05-19,229,Serum,Chloride,mmol/L,97.5150364927655,98,106,4
01-011,1,Site 01,2015-10-04,Y,Visit 4,4,2016-05-19,229,Serum,Creatinine,µmol/L,113.320174567423,61.9,115,4
01-011,1,Site 01,2015-10-04,Y,Visit 4,4,2016-05-19,229,Serum,Direct Bilirubin,µmol/L,3.053069526476,0,5.1,4
01-011,1,Site 01,2015-10-04,Y,Visit 4,4,2016-05-19,229,Serum,IgE,mg/L,0.153906280753741,0.1,0.4,4
01-011,1,Site 01,2015-10-04,Y,Visit 4,4,2016-05-19,229,Serum,Magnesium,mmol/L,0.640185357724955,0.62,0.99,4
01-011,1,Site 01,2015-10-04,Y,Visit 4,4,2016-05-19,229,Serum,Potassium,mmol/L,4.63641030702266,3.5,5,4
01-011,1,Site 01,2015-10-04,Y,Visit 4,4,2016-05-19,229,Serum,Sodium,mmol/L,134.317783809167,136,145,4
01-011,1,Site 01,2015-10-04,Y,Visit 4,4,2016-05-19,229,Serum,Total Bilirubin,µmol/L,,5.1,20.5,4
01-011,1,Site 01,2015-10-04,Y,Visit 4,4,2016-05-19,229,Vital Signs,Diastolic Blood Pressure,mmHg,61.5534811082692,60,80,4
01-011,1,Site 01,2015-10-04,Y,Visit 4,4,2016-05-19,229,Vital Signs,Heart Rate,beats/minute,52.9513458028971,50,80,4
01-011,1,Site 01,2015-10-04,Y,Visit 4,4,2016-05-19,229,Vital Signs,Respiratory Rate,breaths/minute,16.4518783111618,16,20,4
01-011,1,Site 01,2015-10-04,Y,Visit 4,4,2016-05-19,229,Vital Signs,Systolic Blood Pressure,mmHg,,90,120,4
01-011,1,Site 01,2015-10-04,Y,Visit 4,4,2016-05-19,229,Vital Signs,Temperature,°C,36.7922097984333,36.6,37,4
01-011,1,Site 01,2015-10-04,Y,Visit 5,5,2016-07-04,275,Blood,Platelet count,x 109/L,230.161563488514,150,350,5
01-011,1,Site 01,2015-10-04,Y,Visit 5,5,2016-07-04,275,Blood,RBC count,x 1012 cells/L,5.30218040766624,4.2,5.9,5
01-011,1,Site 01,2015-10-04,Y,Visit 5,5,2016-07-04,275,Blood,WBC count,x 109 cells/L,,4.5,11,5
01-011,1,Site 01,2015-10-04,Y,Visit 5,5,2016-07-04,275,Serum,Albumin,g/L,38.6673403414367,35,55,5
01-011,1,Site 01,2015-10-04,Y,Visit 5,5,2016-07-04,275,Serum,Alkaline phosphatase (ALP),µkat/L,0.922088038536271,0.5,1.5,5
01-011,1,Site 01,2015-10-04,Y,Visit 5,5,2016-07-04,275,Serum,"Aminotransferase, alanine (ALT)",pkat/L,0.336380928319892,0,0.58,5
01-011,1,Site 01,2015-10-04,Y,Visit 5,5,2016-07-04,275,Serum,"Aminotransferase, aspartate (AST)",pkat/L,0.0498539447569646,0,0.58,5
01-011,1,Site 01,2015-10-04,Y,Visit 5,5,2016-07-04,275,Serum,Calcium,mmol/L,2.6305551512209,2.2,2.6,5
01-011,1,Site 01,2015-10-04,Y,Visit 5,5,2016-07-04,275,Serum,Chloride,mmol/L,102.509828403558,98,106,5
01-011,1,Site 01,2015-10-04,Y,Visit 5,5,2016-07-04,275,Serum,Creatinine,µmol/L,73.3066984497222,61.9,115,5
01-011,1,Site 01,2015-10-04,Y,Visit 5,5,2016-07-04,275,Serum,Direct Bilirubin,µmol/L,0,0,5.1,5
01-011,1,Site 01,2015-10-04,Y,Visit 5,5,2016-07-04,275,Serum,IgE,mg/L,0.17558602261562,0.1,0.4,5
01-011,1,Site 01,2015-10-04,Y,Visit 5,5,2016-07-04,275,Serum,Magnesium,mmol/L,0.936614776232952,0.62,0.99,5
01-011,1,Site 01,2015-10-04,Y,Visit 5,5,2016-07-04,275,Serum,Potassium,mmol/L,,3.5,5,5
01-011,1,Site 01,2015-10-04,Y,Visit 5,5,2016-07-04,275,Serum,Sodium,mmol/L,136.720524618703,136,145,5
01-011,1,Site 01,2015-10-04,Y,Visit 5,5,2016-07-04,275,Serum,Total Bilirubin,µmol/L,19.2099604897995,5.1,20.5,5
01-011,1,Site 01,2015-10-04,Y,Visit 5,5,2016-07-04,275,Vital Signs,Diastolic Blood Pressure,mmHg,42.8498364873016,60,80,5
01-011,1,Site 01,2015-10-04,Y,Visit 5,5,2016-07-04,275,Vital Signs,Heart Rate,beats/minute,50.63656131964,50,80,5
01-011,1,Site 01,2015-10-04,Y,Visit 5,5,2016-07-04,275,Vital Signs,Respiratory Rate,breaths/minute,19.0828000710589,16,20,5
01-011,1,Site 01,2015-10-04,Y,Visit 5,5,2016-07-04,275,Vital Signs,Systolic Blood Pressure,mmHg,102.250013462954,90,120,5
01-011,1,Site 01,2015-10-04,Y,Visit 5,5,2016-07-04,275,Vital Signs,Temperature,°C,36.953555784539,36.6,37,5
01-011,1,Site 01,2015-10-04,Y,Unscheduled 5.1,5.1,2016-07-12,283,Blood,Platelet count,x 109/L,116.206149200075,150,350,5.1
01-011,1,Site 01,2015-10-04,Y,Unscheduled 5.1,5.1,2016-07-12,283,Blood,RBC count,x 1012 cells/L,6.80879202290361,4.2,5.9,5.1
01-011,1,Site 01,2015-10-04,Y,Unscheduled 5.1,5.1,2016-07-12,283,Blood,WBC count,x 109 cells/L,6.15207692869777,4.5,11,5.1
01-011,1,Site 01,2015-10-04,Y,Unscheduled 5.1,5.1,2016-07-12,283,Serum,Albumin,g/L,44.4344018529223,35,55,5.1
01-011,1,Site 01,2015-10-04,Y,Unscheduled 5.1,5.1,2016-07-12,283,Serum,Alkaline phosphatase (ALP),µkat/L,1.71738918688003,0.5,1.5,5.1
01-011,1,Site 01,2015-10-04,Y,Unscheduled 5.1,5.1,2016-07-12,283,Serum,"Aminotransferase, alanine (ALT)",pkat/L,0.130808825491923,0,0.58,5.1
01-011,1,Site 01,2015-10-04,Y,Unscheduled 5.1,5.1,2016-07-12,283,Serum,"Aminotransferase, aspartate (AST)",pkat/L,0.0184197781926483,0,0.58,5.1
01-011,1,Site 01,2015-10-04,Y,Unscheduled 5.1,5.1,2016-07-12,283,Serum,Calcium,mmol/L,2.51721545375497,2.2,2.6,5.1
01-011,1,Site 01,2015-10-04,Y,Unscheduled 5.1,5.1,2016-07-12,283,Serum,Chloride,mmol/L,105.048072586076,98,106,5.1
01-011,1,Site 01,2015-10-04,Y,Unscheduled 5.1,5.1,2016-07-12,283,Serum,Creatinine,µmol/L,54.310090618424,61.9,115,5.1
01-011,1,Site 01,2015-10-04,Y,Unscheduled 5.1,5.1,2016-07-12,283,Serum,Direct Bilirubin,µmol/L,1.85556336600735,0,5.1,5.1
01-011,1,Site 01,2015-10-04,Y,Unscheduled 5.1,5.1,2016-07-12,283,Serum,IgE,mg/L,0.367389452803226,0.1,0.4,5.1
01-011,1,Site 01,2015-10-04,Y,Unscheduled 5.1,5.1,2016-07-12,283,Serum,Magnesium,mmol/L,0.734860776671561,0.62,0.99,5.1
01-011,1,Site 01,2015-10-04,Y,Unscheduled 5.1,5.1,2016-07-12,283,Serum,Potassium,mmol/L,4.66427525458931,3.5,5,5.1
01-011,1,Site 01,2015-10-04,Y,Unscheduled 5.1,5.1,2016-07-12,283,Serum,Sodium,mmol/L,132.671627169346,136,145,5.1
01-011,1,Site 01,2015-10-04,Y,Unscheduled 5.1,5.1,2016-07-12,283,Serum,Total Bilirubin,µmol/L,15.0566669388327,5.1,20.5,5.1
01-011,1,Site 01,2015-10-04,Y,Unscheduled 5.1,5.1,2016-07-12,283,Vital Signs,Diastolic Blood Pressure,mmHg,54.883621836356,60,80,5.1
01-011,1,Site 01,2015-10-04,Y,Unscheduled 5.1,5.1,2016-07-12,283,Vital Signs,Heart Rate,beats/minute,64.6226694470663,50,80,5.1
01-011,1,Site 01,2015-10-04,Y,Unscheduled 5.1,5.1,2016-07-12,283,Vital Signs,Respiratory Rate,breaths/minute,14.9892246791111,16,20,5.1
01-011,1,Site 01,2015-10-04,Y,Unscheduled 5.1,5.1,2016-07-12,283,Vital Signs,Systolic Blood Pressure,mmHg,131.237316625588,90,120,5.1
01-011,1,Site 01,2015-10-04,Y,Unscheduled 5.1,5.1,2016-07-12,283,Vital Signs,Temperature,°C,36.6895562835773,36.6,37,5.1
01-011,1,Site 01,2015-10-04,Y,Visit 6,6,2016-09-10,343,Blood,Platelet count,x 109/L,254.320736224597,150,350,6
01-011,1,Site 01,2015-10-04,Y,Visit 6,6,2016-09-10,343,Blood,RBC count,x 1012 cells/L,,4.2,5.9,6
01-011,1,Site 01,2015-10-04,Y,Visit 6,6,2016-09-10,343,Blood,WBC count,x 109 cells/L,12.8551301435162,4.5,11,6
01-011,1,Site 01,2015-10-04,Y,Visit 6,6,2016-09-10,343,Serum,Albumin,g/L,,35,55,6
01-011,1,Site 01,2015-10-04,Y,Visit 6,6,2016-09-10,343,Serum,Alkaline phosphatase (ALP),µkat/L,1.18510903248193,0.5,1.5,6
01-011,1,Site 01,2015-10-04,Y,Visit 6,6,2016-09-10,343,Serum,"Aminotransferase, alanine (ALT)",pkat/L,,0,0.58,6
01-011,1,Site 01,2015-10-04,Y,Visit 6,6,2016-09-10,343,Serum,"Aminotransferase, aspartate (AST)",pkat/L,0.112571792079748,0,0.58,6
01-011,1,Site 01,2015-10-04,Y,Visit 6,6,2016-09-10,343,Serum,Calcium,mmol/L,,2.2,2.6,6
01-011,1,Site 01,2015-10-04,Y,Visit 6,6,2016-09-10,343,Serum,Chloride,mmol/L,95.8242246165678,98,106,6
01-011,1,Site 01,2015-10-04,Y,Visit 6,6,2016-09-10,343,Serum,Creatinine,µmol/L,85.0158444279275,61.9,115,6
01-011,1,Site 01,2015-10-04,Y,Visit 6,6,2016-09-10,343,Serum,Direct Bilirubin,µmol/L,5.14667867518846,0,5.1,6
01-011,1,Site 01,2015-10-04,Y,Visit 6,6,2016-09-10,343,Serum,IgE,mg/L,0.425359489279895,0.1,0.4,6
01-011,1,Site 01,2015-10-04,Y,Visit 6,6,2016-09-10,343,Serum,Magnesium,mmol/L,,0.62,0.99,6
01-011,1,Site 01,2015-10-04,Y,Visit 6,6,2016-09-10,343,Serum,Potassium,mmol/L,3.18850549437293,3.5,5,6
01-011,1,Site 01,2015-10-04,Y,Visit 6,6,2016-09-10,343,Serum,Sodium,mmol/L,141.935442015025,136,145,6
01-011,1,Site 01,2015-10-04,Y,Visit 6,6,2016-09-10,343,Serum,Total Bilirubin,µmol/L,22.8040113325909,5.1,20.5,6
01-011,1,Site 01,2015-10-04,Y,Visit 6,6,2016-09-10,343,Vital Signs,Diastolic Blood Pressure,mmHg,75.309441645474,60,80,6
01-011,1,Site 01,2015-10-04,Y,Visit 6,6,2016-09-10,343,Vital Signs,Heart Rate,beats/minute,61.4302226502851,50,80,6
01-011,1,Site 01,2015-10-04,Y,Visit 6,6,2016-09-10,343,Vital Signs,Respiratory Rate,breaths/minute,,16,20,6
01-011,1,Site 01,2015-10-04,Y,Visit 6,6,2016-09-10,343,Vital Signs,Systolic Blood Pressure,mmHg,81.8110988325125,90,120,6
01-011,1,Site 01,2015-10-04,Y,Visit 6,6,2016-09-10,343,Vital Signs,Temperature,°C,36.9111144302532,36.6,37,6
01-011,1,Site 01,2015-10-04,Y,Unscheduled 6.1,6.1,2016-09-18,351,Blood,Platelet count,x 109/L,277.9264960789,150,350,6.1
01-011,1,Site 01,2015-10-04,Y,Unscheduled 6.1,6.1,2016-09-18,351,Blood,RBC count,x 1012 cells/L,5.86363825411296,4.2,5.9,6.1
01-011,1,Site 01,2015-10-04,Y,Unscheduled 6.1,6.1,2016-09-18,351,Blood,WBC count,x 109 cells/L,15.1835856919728,4.5,11,6.1
01-011,1,Site 01,2015-10-04,Y,Unscheduled 6.1,6.1,2016-09-18,351,Serum,Albumin,g/L,35.83648417829,35,55,6.1
01-011,1,Site 01,2015-10-04,Y,Unscheduled 6.1,6.1,2016-09-18,351,Serum,Alkaline phosphatase (ALP),µkat/L,1.48782857151549,0.5,1.5,6.1
01-011,1,Site 01,2015-10-04,Y,Unscheduled 6.1,6.1,2016-09-18,351,Serum,"Aminotransferase, alanine (ALT)",pkat/L,0.317399832973213,0,0.58,6.1
01-011,1,Site 01,2015-10-04,Y,Unscheduled 6.1,6.1,2016-09-18,351,Serum,"Aminotransferase, aspartate (AST)",pkat/L,0.0225567847265987,0,0.58,6.1
01-011,1,Site 01,2015-10-04,Y,Unscheduled 6.1,6.1,2016-09-18,351,Serum,Calcium,mmol/L,1.91491642443141,2.2,2.6,6.1
01-011,1,Site 01,2015-10-04,Y,Unscheduled 6.1,6.1,2016-09-18,351,Serum,Chloride,mmol/L,105.482028852263,98,106,6.1
01-011,1,Site 01,2015-10-04,Y,Unscheduled 6.1,6.1,2016-09-18,351,Serum,Creatinine,µmol/L,83.0923736967634,61.9,115,6.1
01-011,1,Site 01,2015-10-04,Y,Unscheduled 6.1,6.1,2016-09-18,351,Serum,Direct Bilirubin,µmol/L,1.07193098545862,0,5.1,6.1
01-011,1,Site 01,2015-10-04,Y,Unscheduled 6.1,6.1,2016-09-18,351,Serum,IgE,mg/L,0.288662682954314,0.1,0.4,6.1
01-011,1,Site 01,2015-10-04,Y,Unscheduled 6.1,6.1,2016-09-18,351,Serum,Magnesium,mmol/L,0.765667673114497,0.62,0.99,6.1
01-011,1,Site 01,2015-10-04,Y,Unscheduled 6.1,6.1,2016-09-18,351,Serum,Potassium,mmol/L,5.72673682675706,3.5,5,6.1
01-011,1,Site 01,2015-10-04,Y,Unscheduled 6.1,6.1,2016-09-18,351,Serum,Sodium,mmol/L,143.125065684314,136,145,6.1
01-011,1,Site 01,2015-10-04,Y,Unscheduled 6.1,6.1,2016-09-18,351,Serum,Total Bilirubin,µmol/L,14.1025455675082,5.1,20.5,6.1
01-011,1,Site 01,2015-10-04,Y,Unscheduled 6.1,6.1,2016-09-18,351,Vital Signs,Diastolic Blood Pressure,mmHg,71.7481611266337,60,80,6.1
01-011,1,Site 01,2015-10-04,Y,Unscheduled 6.1,6.1,2016-09-18,351,Vital Signs,Heart Rate,beats/minute,45.442643954095,50,80,6.1
01-011,1,Site 01,2015-10-04,Y,Unscheduled 6.1,6.1,2016-09-18,351,Vital Signs,Respiratory Rate,breaths/minute,16.5015086151909,16,20,6.1
01-011,1,Site 01,2015-10-04,Y,Unscheduled 6.1,6.1,2016-09-18,351,Vital Signs,Systolic Blood Pressure,mmHg,120.74158344674,90,120,6.1
01-011,1,Site 01,2015-10-04,Y,Unscheduled 6.1,6.1,2016-09-18,351,Vital Signs,Temperature,°C,36.6655111551075,36.6,37,6.1
01-011,1,Site 01,2015-10-04,Y,End of Study,7,2016-10-08,371,Blood,Platelet count,x 109/L,396.397694718643,150,350,7
01-011,1,Site 01,2015-10-04,Y,End of Study,7,2016-10-08,371,Blood,RBC count,x 1012 cells/L,7.17259627254174,4.2,5.9,7
01-011,1,Site 01,2015-10-04,Y,End of Study,7,2016-10-08,371,Blood,WBC count,x 109 cells/L,6.44572922665822,4.5,11,7
01-011,1,Site 01,2015-10-04,Y,End of Study,7,2016-10-08,371,Serum,Albumin,g/L,28.657162777593,35,55,7
01-011,1,Site 01,2015-10-04,Y,End of Study,7,2016-10-08,371,Serum,Alkaline phosphatase (ALP),µkat/L,0.813024672676284,0.5,1.5,7
01-011,1,Site 01,2015-10-04,Y,End of Study,7,2016-10-08,371,Serum,"Aminotransferase, alanine (ALT)",pkat/L,0.0664507070767463,0,0.58,7
01-011,1,Site 01,2015-10-04,Y,End of Study,7,2016-10-08,371,Serum,"Aminotransferase, aspartate (AST)",pkat/L,0.173228158618885,0,0.58,7
01-011,1,Site 01,2015-10-04,Y,End of Study,7,2016-10-08,371,Serum,Calcium,mmol/L,2.91676848596704,2.2,2.6,7
01-011,1,Site 01,2015-10-04,Y,End of Study,7,2016-10-08,371,Serum,Chloride,mmol/L,,98,106,7
01-011,1,Site 01,2015-10-04,Y,End of Study,7,2016-10-08,371,Serum,Creatinine,µmol/L,55.8431631925214,61.9,115,7
01-011,1,Site 01,2015-10-04,Y,End of Study,7,2016-10-08,371,Serum,Direct Bilirubin,µmol/L,,0,5.1,7
01-011,1,Site 01,2015-10-04,Y,End of Study,7,2016-10-08,371,Serum,IgE,mg/L,,0.1,0.4,7
01-011,1,Site 01,2015-10-04,Y,End of Study,7,2016-10-08,371,Serum,Magnesium,mmol/L,0.687418593224161,0.62,0.99,7
01-011,1,Site 01,2015-10-04,Y,End of Study,7,2016-10-08,371,Serum,Potassium,mmol/L,2.75622458835129,3.5,5,7
01-011,1,Site 01,2015-10-04,Y,End of Study,7,2016-10-08,371,Serum,Sodium,mmol/L,141.966855252178,136,145,7
01-011,1,Site 01,2015-10-04,Y,End of Study,7,2016-10-08,371,Serum,Total Bilirubin,µmol/L,13.3774604359548,5.1,20.5,7
01-011,1,Site 01,2015-10-04,Y,End of Study,7,2016-10-08,371,Vital Signs,Diastolic Blood Pressure,mmHg,52.5873230681592,60,80,7
01-011,1,Site 01,2015-10-04,Y,End of Study,7,2016-10-08,371,Vital Signs,Heart Rate,beats/minute,59.7905496859549,50,80,7
01-011,1,Site 01,2015-10-04,Y,End of Study,7,2016-10-08,371,Vital Signs,Respiratory Rate,breaths/minute,19.7033020218165,16,20,7
01-011,1,Site 01,2015-10-04,Y,End of Study,7,2016-10-08,371,Vital Signs,Systolic Blood Pressure,mmHg,94.6002981208123,90,120,7
01-011,1,Site 01,2015-10-04,Y,End of Study,7,2016-10-08,371,Vital Signs,Temperature,°C,36.6135734152936,36.6,37,7
01-012,1,Site 01,2015-04-19,Y,Screening,0,2015-04-19,1,Blood,Platelet count,x 109/L,363.954848928397,150,350,0
01-012,1,Site 01,2015-04-19,Y,Screening,0,2015-04-19,1,Blood,RBC count,x 1012 cells/L,3.31821542753673,4.2,5.9,0
01-012,1,Site 01,2015-04-19,Y,Screening,0,2015-04-19,1,Blood,WBC count,x 109 cells/L,10.866357723249,4.5,11,0
01-012,1,Site 01,2015-04-19,Y,Screening,0,2015-04-19,1,Serum,Albumin,g/L,45.3017043129916,35,55,0
01-012,1,Site 01,2015-04-19,Y,Screening,0,2015-04-19,1,Serum,Alkaline phosphatase (ALP),µkat/L,,0.5,1.5,0
01-012,1,Site 01,2015-04-19,Y,Screening,0,2015-04-19,1,Serum,"Aminotransferase, alanine (ALT)",pkat/L,0.20668169576398,0,0.58,0
01-012,1,Site 01,2015-04-19,Y,Screening,0,2015-04-19,1,Serum,"Aminotransferase, aspartate (AST)",pkat/L,0.488676317294771,0,0.58,0
01-012,1,Site 01,2015-04-19,Y,Screening,0,2015-04-19,1,Serum,Calcium,mmol/L,2.47098468432352,2.2,2.6,0
01-012,1,Site 01,2015-04-19,Y,Screening,0,2015-04-19,1,Serum,Chloride,mmol/L,102.680772506223,98,106,0
01-012,1,Site 01,2015-04-19,Y,Screening,0,2015-04-19,1,Serum,Creatinine,µmol/L,111.510663813524,61.9,115,0
01-012,1,Site 01,2015-04-19,Y,Screening,0,2015-04-19,1,Serum,Direct Bilirubin,µmol/L,4.97394952069643,0,5.1,0
01-012,1,Site 01,2015-04-19,Y,Screening,0,2015-04-19,1,Serum,IgE,mg/L,0.317568034753654,0.1,0.4,0
01-012,1,Site 01,2015-04-19,Y,Screening,0,2015-04-19,1,Serum,Magnesium,mmol/L,0.864493277686945,0.62,0.99,0
01-012,1,Site 01,2015-04-19,Y,Screening,0,2015-04-19,1,Serum,Potassium,mmol/L,4.47977576905568,3.5,5,0
01-012,1,Site 01,2015-04-19,Y,Screening,0,2015-04-19,1,Serum,Sodium,mmol/L,132.612833299531,136,145,0
01-012,1,Site 01,2015-04-19,Y,Screening,0,2015-04-19,1,Serum,Total Bilirubin,µmol/L,9.05555684346808,5.1,20.5,0
01-012,1,Site 01,2015-04-19,Y,Screening,0,2015-04-19,1,Vital Signs,Diastolic Blood Pressure,mmHg,58.6700916717992,60,80,0
01-012,1,Site 01,2015-04-19,Y,Screening,0,2015-04-19,1,Vital Signs,Heart Rate,beats/minute,67.0406106335741,50,80,0
01-012,1,Site 01,2015-04-19,Y,Screening,0,2015-04-19,1,Vital Signs,Respiratory Rate,breaths/minute,13.961475673778,16,20,0
01-012,1,Site 01,2015-04-19,Y,Screening,0,2015-04-19,1,Vital Signs,Systolic Blood Pressure,mmHg,,90,120,0
01-012,1,Site 01,2015-04-19,Y,Screening,0,2015-04-19,1,Vital Signs,Temperature,°C,36.8862247759809,36.6,37,0
01-012,1,Site 01,2015-04-19,Y,Visit 1,1,2015-06-06,49,Blood,Platelet count,x 109/L,293.611731819408,150,350,1
01-012,1,Site 01,2015-04-19,Y,Visit 1,1,2015-06-06,49,Blood,RBC count,x 1012 cells/L,4.66853921502048,4.2,5.9,1
01-012,1,Site 01,2015-04-19,Y,Visit 1,1,2015-06-06,49,Blood,WBC count,x 109 cells/L,6.41088864821406,4.5,11,1
01-012,1,Site 01,2015-04-19,Y,Visit 1,1,2015-06-06,49,Serum,Albumin,g/L,42.8790942681526,35,55,1
01-012,1,Site 01,2015-04-19,Y,Visit 1,1,2015-06-06,49,Serum,Alkaline phosphatase (ALP),µkat/L,1.51019706032905,0.5,1.5,1
01-012,1,Site 01,2015-04-19,Y,Visit 1,1,2015-06-06,49,Serum,"Aminotransferase, alanine (ALT)",pkat/L,0.142726678150371,0,0.58,1
01-012,1,Site 01,2015-04-19,Y,Visit 1,1,2015-06-06,49,Serum,"Aminotransferase, aspartate (AST)",pkat/L,0.708576262731219,0,0.58,1
01-012,1,Site 01,2015-04-19,Y,Visit 1,1,2015-06-06,49,Serum,Calcium,mmol/L,2.25374941734911,2.2,2.6,1
01-012,1,Site 01,2015-04-19,Y,Visit 1,1,2015-06-06,49,Serum,Chloride,mmol/L,,98,106,1
01-012,1,Site 01,2015-04-19,Y,Visit 1,1,2015-06-06,49,Serum,Creatinine,µmol/L,80.244599752557,61.9,115,1
01-012,1,Site 01,2015-04-19,Y,Visit 1,1,2015-06-06,49,Serum,Direct Bilirubin,µmol/L,0,0,5.1,1
01-012,1,Site 01,2015-04-19,Y,Visit 1,1,2015-06-06,49,Serum,IgE,mg/L,0.363123312999171,0.1,0.4,1
01-012,1,Site 01,2015-04-19,Y,Visit 1,1,2015-06-06,49,Serum,Magnesium,mmol/L,0.559250818485594,0.62,0.99,1
01-012,1,Site 01,2015-04-19,Y,Visit 1,1,2015-06-06,49,Serum,Potassium,mmol/L,4.89816518549941,3.5,5,1
01-012,1,Site 01,2015-04-19,Y,Visit 1,1,2015-06-06,49,Serum,Sodium,mmol/L,140.090263818764,136,145,1
01-012,1,Site 01,2015-04-19,Y,Visit 1,1,2015-06-06,49,Serum,Total Bilirubin,µmol/L,10.6228892266716,5.1,20.5,1
01-012,1,Site 01,2015-04-19,Y,Visit 1,1,2015-06-06,49,Vital Signs,Diastolic Blood Pressure,mmHg,84.876994567807,60,80,1
01-012,1,Site 01,2015-04-19,Y,Visit 1,1,2015-06-06,49,Vital Signs,Heart Rate,beats/minute,61.872537888894,50,80,1
01-012,1,Site 01,2015-04-19,Y,Visit 1,1,2015-06-06,49,Vital Signs,Respiratory Rate,breaths/minute,18.2947983975385,16,20,1
01-012,1,Site 01,2015-04-19,Y,Visit 1,1,2015-06-06,49,Vital Signs,Systolic Blood Pressure,mmHg,132.286617481733,90,120,1
01-012,1,Site 01,2015-04-19,Y,Visit 1,1,2015-06-06,49,Vital Signs,Temperature,°C,36.6150862203632,36.6,37,1
01-012,1,Site 01,2015-04-19,Y,Visit 2,2,2015-08-01,105,Blood,Platelet count,x 109/L,228.630062947788,150,350,2
01-012,1,Site 01,2015-04-19,Y,Visit 2,2,2015-08-01,105,Blood,RBC count,x 1012 cells/L,5.47764279938941,4.2,5.9,2
01-012,1,Site 01,2015-04-19,Y,Visit 2,2,2015-08-01,105,Blood,WBC count,x 109 cells/L,3.70949724557909,4.5,11,2
01-012,1,Site 01,2015-04-19,Y,Visit 2,2,2015-08-01,105,Serum,Albumin,g/L,40.4527675413427,35,55,2
01-012,1,Site 01,2015-04-19,Y,Visit 2,2,2015-08-01,105,Serum,Alkaline phosphatase (ALP),µkat/L,0.724703816602084,0.5,1.5,2
01-012,1,Site 01,2015-04-19,Y,Visit 2,2,2015-08-01,105,Serum,"Aminotransferase, alanine (ALT)",pkat/L,0,0,0.58,2
01-012,1,Site 01,2015-04-19,Y,Visit 2,2,2015-08-01,105,Serum,"Aminotransferase, aspartate (AST)",pkat/L,0.617335464352424,0,0.58,2
01-012,1,Site 01,2015-04-19,Y,Visit 2,2,2015-08-01,105,Serum,Calcium,mmol/L,2.22742552338845,2.2,2.6,2
01-012,1,Site 01,2015-04-19,Y,Visit 2,2,2015-08-01,105,Serum,Chloride,mmol/L,103.522438385883,98,106,2
01-012,1,Site 01,2015-04-19,Y,Visit 2,2,2015-08-01,105,Serum,Creatinine,µmol/L,56.9908708412818,61.9,115,2
01-012,1,Site 01,2015-04-19,Y,Visit 2,2,2015-08-01,105,Serum,Direct Bilirubin,µmol/L,7.18463520751135,0,5.1,2
01-012,1,Site 01,2015-04-19,Y,Visit 2,2,2015-08-01,105,Serum,IgE,mg/L,0.286500044540255,0.1,0.4,2
01-012,1,Site 01,2015-04-19,Y,Visit 2,2,2015-08-01,105,Serum,Magnesium,mmol/L,0.610200395243656,0.62,0.99,2
01-012,1,Site 01,2015-04-19,Y,Visit 2,2,2015-08-01,105,Serum,Potassium,mmol/L,4.09179022962235,3.5,5,2
01-012,1,Site 01,2015-04-19,Y,Visit 2,2,2015-08-01,105,Serum,Sodium,mmol/L,146.670120588457,136,145,2
01-012,1,Site 01,2015-04-19,Y,Visit 2,2,2015-08-01,105,Serum,Total Bilirubin,µmol/L,2.85932219783989,5.1,20.5,2
01-012,1,Site 01,2015-04-19,Y,Visit 2,2,2015-08-01,105,Vital Signs,Diastolic Blood Pressure,mmHg,,60,80,2
01-012,1,Site 01,2015-04-19,Y,Visit 2,2,2015-08-01,105,Vital Signs,Heart Rate,beats/minute,54.6497581156525,50,80,2
01-012,1,Site 01,2015-04-19,Y,Visit 2,2,2015-08-01,105,Vital Signs,Respiratory Rate,breaths/minute,14.7066681453849,16,20,2
01-012,1,Site 01,2015-04-19,Y,Visit 2,2,2015-08-01,105,Vital Signs,Systolic Blood Pressure,mmHg,105.868904238966,90,120,2
01-012,1,Site 01,2015-04-19,Y,Visit 2,2,2015-08-01,105,Vital Signs,Temperature,°C,36.81791421366,36.6,37,2
01-012,1,Site 01,2015-04-19,Y,Visit 3,3,2015-09-28,163,Blood,Platelet count,x 109/L,211.955561192754,150,350,3
01-012,1,Site 01,2015-04-19,Y,Visit 3,3,2015-09-28,163,Blood,RBC count,x 1012 cells/L,6.12064961960655,4.2,5.9,3
01-012,1,Site 01,2015-04-19,Y,Visit 3,3,2015-09-28,163,Blood,WBC count,x 109 cells/L,7.6398754736105,4.5,11,3
01-012,1,Site 01,2015-04-19,Y,Visit 3,3,2015-09-28,163,Serum,Albumin,g/L,45.6634230772046,35,55,3
01-012,1,Site 01,2015-04-19,Y,Visit 3,3,2015-09-28,163,Serum,Alkaline phosphatase (ALP),µkat/L,1.31963159550662,0.5,1.5,3
01-012,1,Site 01,2015-04-19,Y,Visit 3,3,2015-09-28,163,Serum,"Aminotransferase, alanine (ALT)",pkat/L,0.0469354959945822,0,0.58,3
01-012,1,Site 01,2015-04-19,Y,Visit 3,3,2015-09-28,163,Serum,"Aminotransferase, aspartate (AST)",pkat/L,0.305595712351966,0,0.58,3
01-012,1,Site 01,2015-04-19,Y,Visit 3,3,2015-09-28,163,Serum,Calcium,mmol/L,2.29171975486137,2.2,2.6,3
01-012,1,Site 01,2015-04-19,Y,Visit 3,3,2015-09-28,163,Serum,Chloride,mmol/L,98.9631647749197,98,106,3
01-012,1,Site 01,2015-04-19,Y,Visit 3,3,2015-09-28,163,Serum,Creatinine,µmol/L,,61.9,115,3
01-012,1,Site 01,2015-04-19,Y,Visit 3,3,2015-09-28,163,Serum,Direct Bilirubin,µmol/L,2.93206846635019,0,5.1,3
01-012,1,Site 01,2015-04-19,Y,Visit 3,3,2015-09-28,163,Serum,IgE,mg/L,,0.1,0.4,3
01-012,1,Site 01,2015-04-19,Y,Visit 3,3,2015-09-28,163,Serum,Magnesium,mmol/L,0.671428731568992,0.62,0.99,3
01-012,1,Site 01,2015-04-19,Y,Visit 3,3,2015-09-28,163,Serum,Potassium,mmol/L,2.59160024367593,3.5,5,3
01-012,1,Site 01,2015-04-19,Y,Visit 3,3,2015-09-28,163,Serum,Sodium,mmol/L,,136,145,3
01-012,1,Site 01,2015-04-19,Y,Visit 3,3,2015-09-28,163,Serum,Total Bilirubin,µmol/L,7.42643505856684,5.1,20.5,3
01-012,1,Site 01,2015-04-19,Y,Visit 3,3,2015-09-28,163,Vital Signs,Diastolic Blood Pressure,mmHg,,60,80,3
01-012,1,Site 01,2015-04-19,Y,Visit 3,3,2015-09-28,163,Vital Signs,Heart Rate,beats/minute,,50,80,3
01-012,1,Site 01,2015-04-19,Y,Visit 3,3,2015-09-28,163,Vital Signs,Respiratory Rate,breaths/minute,21.7782894389796,16,20,3
01-012,1,Site 01,2015-04-19,Y,Visit 3,3,2015-09-28,163,Vital Signs,Systolic Blood Pressure,mmHg,104.135929385493,90,120,3
01-012,1,Site 01,2015-04-19,Y,Visit 3,3,2015-09-28,163,Vital Signs,Temperature,°C,36.8536310268712,36.6,37,3
01-012,1,Site 01,2015-04-19,Y,Visit 4,4,2015-11-24,220,Blood,Platelet count,x 109/L,255.070008583736,150,350,4
01-012,1,Site 01,2015-04-19,Y,Visit 4,4,2015-11-24,220,Blood,RBC count,x 1012 cells/L,5.10526209364993,4.2,5.9,4
01-012,1,Site 01,2015-04-19,Y,Visit 4,4,2015-11-24,220,Blood,WBC count,x 109 cells/L,8.82683646166612,4.5,11,4
01-012,1,Site 01,2015-04-19,Y,Visit 4,4,2015-11-24,220,Serum,Albumin,g/L,50.9972138273931,35,55,4
01-012,1,Site 01,2015-04-19,Y,Visit 4,4,2015-11-24,220,Serum,Alkaline phosphatase (ALP),µkat/L,0.669269089837689,0.5,1.5,4
01-012,1,Site 01,2015-04-19,Y,Visit 4,4,2015-11-24,220,Serum,"Aminotransferase, alanine (ALT)",pkat/L,0.510390996876729,0,0.58,4
01-012,1,Site 01,2015-04-19,Y,Visit 4,4,2015-11-24,220,Serum,"Aminotransferase, aspartate (AST)",pkat/L,0.688591154231244,0,0.58,4
01-012,1,Site 01,2015-04-19,Y,Visit 4,4,2015-11-24,220,Serum,Calcium,mmol/L,2.63892507667101,2.2,2.6,4
