,STUDYID,USUBJID,SUBJID,SITEID,ORIGSITE,PCSEQ,PCREFID,PCORRESU,PCSTRESC,PCSTRESN,PCSTRESU,PCSPEC,PCSPECN,PCSPECL,PCSPECS,PCLLOQ,VISITNUM,EPOCH,EPOCHN,EPOCHL,EPOCHS,PCDTC,PCDY,PCTPT,PCTPTNUM,PCELTM,PCTPTREF,PCRFTDTC,PCRFTDTN,EPLTM,EPLENTM,EACTM,ANLPRNT,SMPNO,SMPSTA,RFSTDTC,RFENDTC,RFENDTN,AGE,AGEIMP,AGEU,AGEUN,AGEUL,AGEUS,SEX,SEXS,RACE,RACES,RACESY,ETHNIC,ETHNICS,ARMCD,ARM,ETHNICL,ETHNICN,RACEL,RACEN,SEXL,SEXN,ACARMCD,ACARM,DVPOPX,DVPOPXN,ASR,CCS,TRTSEQPN,TRTSEQAN,SAFFL,PKFL,SCRFL,SAFFN,PKFN,SCRFN,TR01SDT,TR01EDT,TRT03P,TRT03A,TRT03PN,TRT03AN,TRTSDTM,TRTEDTM,TRTETM,TRTEDT,TRTSDT,TRTSEQP,TRTSEQA,FUPEDT,PARAMCD,PARAM,PARCAT1,PARAMLNK,ATPTN,ARFDTM,ARFDT,ARFTM,ADTM,ADT,ATM,AVAL,AVALC,PARCAT1N,PARCAT2,PARCAT2N,PARCAT2L,PARCAT3,PARCAT3N,PARCAT3L,ATPT,ATPTREF,ANL01FL,ANL01FN,ANL01DSC,PARAMN,ADY,TRTA,TRTP,APERIODC,APERIOD,TRTAN,TRTPN,TRTAS,PCSDY
0,Study001,Study001_1001015,1001015,1001,1,1.0,101,ng/mL,0,5.397605346934028e-79,ng/mL,PLASMA,27.0,Plasma,PLASMA,1.0,101.0,TREATMENT PERIOD 1,24.0,Treatment period 1,TRTPR1,2012-10-30T07:51:00,1.0,0 HOURS PRE DOSE,1.0,-PT0H,DOSE,2012-10-30T08:01,1667203260.0,0,,0,A,101,OK,2012-10-30T08:01,2012-11-12,1668297600.0,25.0,25.0,YEARS,349.0,Years,YEARS,F,F,CAUCASIAN,CA,,HISPANIC OR LATINO,HIS,ABC,A / B /C,HISPANIC OR LATINO,100.0,CAUCASIAN,10.0,F,2.0,ABC,A / B /C,,,25/F/Ca,MOON/1001015,1.0,1.0,Y,Y,N,1.0,1.0,5.397605346934028e-79,19296.0,19296.0,C,C,3.0,3.0,1667203260.0,1667980860.0,28860.0,19305.0,19296.0,A / B /C,A / B /C,19309.0,PCCONC,PK concentration (ng/mL),DRUG ANAL 1 Plasma,PC_ANAL 1_NG/ML,1.0,1667203260.0,19296.0,28860.0,1667202660.0,19296.0,28260.0,5.397605346934028e-79,0,15.27,GENERAL,5.397605346934028e-79,General,ANALYTE,1.0,Analyte,0 HOURS PRE DOSE,DOSE,,,,1.0,1.0,A,A,PERIOD 1,1.0,1.0,1.0,A,1.0
1,Study001,Study001_1001015,1001015,1001,1,2.0,101,ng/mL,0,5.397605346934028e-79,ng/mL,PLASMA,27.0,Plasma,PLASMA,20.0,101.0,TREATMENT PERIOD 1,24.0,Treatment period 1,TRTPR1,2012-10-30T07:51:00,1.0,0 HOURS PRE DOSE,1.0,-PT0H,DOSE,2012-10-30T08:01,1667203260.0,0,,0,A,101,OK,2012-10-30T08:01,2012-11-12,1668297600.0,25.0,25.0,YEARS,349.0,Years,YEARS,F,F,CAUCASIAN,CA,,HISPANIC OR LATINO,HIS,ABC,A / B /C,HISPANIC OR LATINO,100.0,CAUCASIAN,10.0,F,2.0,ABC,A / B /C,,,25/F/Ca,MOON/1001015,1.0,1.0,Y,Y,N,1.0,1.0,5.397605346934028e-79,19296.0,19296.0,C,C,3.0,3.0,1667203260.0,1667980860.0,28860.0,19305.0,19296.0,A / B /C,A / B /C,19309.0,PCCONC,PK concentration (ng/mL),DRUG ANAL 2 Plasma,PC_ANAL 2_NG/ML,1.0,1667203260.0,19296.0,28860.0,1667202660.0,19296.0,28260.0,5.397605346934028e-79,0,16.270000000000007,GENERAL,5.397605346934028e-79,General,ANALYTE,1.0,Analyte,0 HOURS PRE DOSE,DOSE,,,,1.0,1.0,A,A,PERIOD 1,1.0,1.0,1.0,A,1.0
2,Study001,Study001_1001015,1001015,1001,1,3.0,101,ng/mL,0,5.397605346934028e-79,ng/mL,PLASMA,27.0,Plasma,PLASMA,10.0,101.0,TREATMENT PERIOD 1,24.0,Treatment period 1,TRTPR1,2012-10-30T07:51:00,1.0,0 HOURS PRE DOSE,1.0,-PT0H,DOSE,2012-10-30T08:01,1667203260.0,0,,0,A,101,OK,2012-10-30T08:01,2012-11-12,1668297600.0,25.0,25.0,YEARS,349.0,Years,YEARS,F,F,CAUCASIAN,CA,,HISPANIC OR LATINO,HIS,ABC,A / B /C,HISPANIC OR LATINO,100.0,CAUCASIAN,10.0,F,2.0,ABC,A / B /C,,,25/F/Ca,MOON/1001015,1.0,1.0,Y,Y,N,1.0,1.0,5.397605346934028e-79,19296.0,19296.0,C,C,3.0,3.0,1667203260.0,1667980860.0,28860.0,19305.0,19296.0,A / B /C,A / B /C,19309.0,PCCONC,PK concentration (ng/mL),DRUG ANAL 3 Plasma,PC_ANAL 3_NG/ML,1.0,1667203260.0,19296.0,28860.0,1667202660.0,19296.0,28260.0,5.397605346934028e-79,0,17.270000000000007,GENERAL,5.397605346934028e-79,General,ANALYTE,1.0,Analyte,0 HOURS PRE DOSE,DOSE,,,,1.0,1.0,A,A,PERIOD 1,1.0,1.0,1.0,A,1.0
3,Study001,Study001_1001015,1001015,1001,1,4.0,102,ng/mL,350,350.0,ng/mL,PLASMA,27.0,Plasma,PLASMA,,101.0,TREATMENT PERIOD 1,24.0,Treatment period 1,TRTPR1,2012-10-30T08:16:00,1.0,0.25 HOURS POST DOSE,2.0,PT0.25H,DOSE,2012-10-30T08:01,1667203260.0,0.25,,0.25,A,102,OK,2012-10-30T08:01,2012-11-12,1668297600.0,25.0,25.0,YEARS,349.0,Years,YEARS,F,F,CAUCASIAN,CA,,HISPANIC OR LATINO,HIS,ABC,A / B /C,HISPANIC OR LATINO,100.0,CAUCASIAN,10.0,F,2.0,ABC,A / B /C,,,25/F/Ca,MOON/1001015,1.0,1.0,Y,Y,N,1.0,1.0,5.397605346934028e-79,19296.0,19296.0,C,C,3.0,3.0,1667203260.0,1667980860.0,28860.0,19305.0,19296.0,A / B /C,A / B /C,19309.0,PCCONC,PK concentration (ng/mL),DRUG ANAL 1 Plasma,PC_ANAL 1_NG/ML,2.0,1667203260.0,19296.0,28860.0,1667204160.0,19296.0,29760.0,350.0,350,15.27,GENERAL,5.397605346934028e-79,General,ANALYTE,1.0,Analyte,0.25 HOURS POST DOSE,DOSE,,,,1.0,1.0,A,A,PERIOD 1,1.0,1.0,1.0,A,1.0
4,Study001,Study001_1001015,1001015,1001,1,5.0,102,ng/mL,0,5.397605346934028e-79,ng/mL,PLASMA,27.0,Plasma,PLASMA,20.0,101.0,TREATMENT PERIOD 1,24.0,Treatment period 1,TRTPR1,2012-10-30T08:16:00,1.0,0.25 HOURS POST DOSE,2.0,PT0.25H,DOSE,2012-10-30T08:01,1667203260.0,0.25,,0.25,A,102,OK,2012-10-30T08:01,2012-11-12,1668297600.0,25.0,25.0,YEARS,349.0,Years,YEARS,F,F,CAUCASIAN,CA,,HISPANIC OR LATINO,HIS,ABC,A / B /C,HISPANIC OR LATINO,100.0,CAUCASIAN,10.0,F,2.0,ABC,A / B /C,,,25/F/Ca,MOON/1001015,1.0,1.0,Y,Y,N,1.0,1.0,5.397605346934028e-79,19296.0,19296.0,C,C,3.0,3.0,1667203260.0,1667980860.0,28860.0,19305.0,19296.0,A / B /C,A / B /C,19309.0,PCCONC,PK concentration (ng/mL),DRUG ANAL 2 Plasma,PC_ANAL 2_NG/ML,2.0,1667203260.0,19296.0,28860.0,1667204160.0,19296.0,29760.0,5.397605346934028e-79,0,16.270000000000007,GENERAL,5.397605346934028e-79,General,ANALYTE,1.0,Analyte,0.25 HOURS POST DOSE,DOSE,,,,1.0,1.0,A,A,PERIOD 1,1.0,1.0,1.0,A,1.0
5,Study001,Study001_1001015,1001015,1001,1,6.0,102,ng/mL,570,570.0,ng/mL,PLASMA,27.0,Plasma,PLASMA,,101.0,TREATMENT PERIOD 1,24.0,Treatment period 1,TRTPR1,2012-10-30T08:16:00,1.0,0.25 HOURS POST DOSE,2.0,PT0.25H,DOSE,2012-10-30T08:01,1667203260.0,0.25,,0.25,A,102,OK,2012-10-30T08:01,2012-11-12,1668297600.0,25.0,25.0,YEARS,349.0,Years,YEARS,F,F,CAUCASIAN,CA,,HISPANIC OR LATINO,HIS,ABC,A / B /C,HISPANIC OR LATINO,100.0,CAUCASIAN,10.0,F,2.0,ABC,A / B /C,,,25/F/Ca,MOON/1001015,1.0,1.0,Y,Y,N,1.0,1.0,5.397605346934028e-79,19296.0,19296.0,C,C,3.0,3.0,1667203260.0,1667980860.0,28860.0,19305.0,19296.0,A / B /C,A / B /C,19309.0,PCCONC,PK concentration (ng/mL),DRUG ANAL 3 Plasma,PC_ANAL 3_NG/ML,2.0,1667203260.0,19296.0,28860.0,1667204160.0,19296.0,29760.0,570.0,570,17.270000000000007,GENERAL,5.397605346934028e-79,General,ANALYTE,1.0,Analyte,0.25 HOURS POST DOSE,DOSE,,,,1.0,1.0,A,A,PERIOD 1,1.0,1.0,1.0,A,1.0
6,Study001,Study001_1001015,1001015,1001,1,7.0,103,ng/mL,2070,2070.0,ng/mL,PLASMA,27.0,Plasma,PLASMA,,101.0,TREATMENT PERIOD 1,24.0,Treatment period 1,TRTPR1,2012-10-30T08:31:00,1.0,0.5 HOURS POST DOSE,3.0,PT0.5H,DOSE,2012-10-30T08:01,1667203260.0,0.5,,0.5,A,103,OK,2012-10-30T08:01,2012-11-12,1668297600.0,25.0,25.0,YEARS,349.0,Years,YEARS,F,F,CAUCASIAN,CA,,HISPANIC OR LATINO,HIS,ABC,A / B /C,HISPANIC OR LATINO,100.0,CAUCASIAN,10.0,F,2.0,ABC,A / B /C,,,25/F/Ca,MOON/1001015,1.0,1.0,Y,Y,N,1.0,1.0,5.397605346934028e-79,19296.0,19296.0,C,C,3.0,3.0,1667203260.0,1667980860.0,28860.0,19305.0,19296.0,A / B /C,A / B /C,19309.0,PCCONC,PK concentration (ng/mL),DRUG ANAL 1 Plasma,PC_ANAL 1_NG/ML,3.0,1667203260.0,19296.0,28860.0,1667205060.0,19296.0,30660.0,2070.0,2070,15.27,GENERAL,5.397605346934028e-79,General,ANALYTE,1.0,Analyte,0.5 HOURS POST DOSE,DOSE,,,,1.0,1.0,A,A,PERIOD 1,1.0,1.0,1.0,A,1.0
7,Study001,Study001_1001015,1001015,1001,1,8.0,103,ng/mL,520,520.0,ng/mL,PLASMA,27.0,Plasma,PLASMA,,101.0,TREATMENT PERIOD 1,24.0,Treatment period 1,TRTPR1,2012-10-30T08:31:00,1.0,0.5 HOURS POST DOSE,3.0,PT0.5H,DOSE,2012-10-30T08:01,1667203260.0,0.5,,0.5,A,103,OK,2012-10-30T08:01,2012-11-12,1668297600.0,25.0,25.0,YEARS,349.0,Years,YEARS,F,F,CAUCASIAN,CA,,HISPANIC OR LATINO,HIS,ABC,A / B /C,HISPANIC OR LATINO,100.0,CAUCASIAN,10.0,F,2.0,ABC,A / B /C,,,25/F/Ca,MOON/1001015,1.0,1.0,Y,Y,N,1.0,1.0,5.397605346934028e-79,19296.0,19296.0,C,C,3.0,3.0,1667203260.0,1667980860.0,28860.0,19305.0,19296.0,A / B /C,A / B /C,19309.0,PCCONC,PK concentration (ng/mL),DRUG ANAL 2 Plasma,PC_ANAL 2_NG/ML,3.0,1667203260.0,19296.0,28860.0,1667205060.0,19296.0,30660.0,520.0,520,16.270000000000007,GENERAL,5.397605346934028e-79,General,ANALYTE,1.0,Analyte,0.5 HOURS POST DOSE,DOSE,,,,1.0,1.0,A,A,PERIOD 1,1.0,1.0,1.0,A,1.0
8,Study001,Study001_1001015,1001015,1001,1,9.0,103,ng/mL,1320,1320.0,ng/mL,PLASMA,27.0,Plasma,PLASMA,,101.0,TREATMENT PERIOD 1,24.0,Treatment period 1,TRTPR1,2012-10-30T08:31:00,1.0,0.5 HOURS POST DOSE,3.0,PT0.5H,DOSE,2012-10-30T08:01,1667203260.0,0.5,,0.5,A,103,OK,2012-10-30T08:01,2012-11-12,1668297600.0,25.0,25.0,YEARS,349.0,Years,YEARS,F,F,CAUCASIAN,CA,,HISPANIC OR LATINO,HIS,ABC,A / B /C,HISPANIC OR LATINO,100.0,CAUCASIAN,10.0,F,2.0,ABC,A / B /C,,,25/F/Ca,MOON/1001015,1.0,1.0,Y,Y,N,1.0,1.0,5.397605346934028e-79,19296.0,19296.0,C,C,3.0,3.0,1667203260.0,1667980860.0,28860.0,19305.0,19296.0,A / B /C,A / B /C,19309.0,PCCONC,PK concentration (ng/mL),DRUG ANAL 3 Plasma,PC_ANAL 3_NG/ML,3.0,1667203260.0,19296.0,28860.0,1667205060.0,19296.0,30660.0,1320.0,1320,17.270000000000007,GENERAL,5.397605346934028e-79,General,ANALYTE,1.0,Analyte,0.5 HOURS POST DOSE,DOSE,,,,1.0,1.0,A,A,PERIOD 1,1.0,1.0,1.0,A,1.0
9,Study001,Study001_1001015,1001015,1001,1,10.0,104,ng/mL,3010,3010.0,ng/mL,PLASMA,27.0,Plasma,PLASMA,,101.0,TREATMENT PERIOD 1,24.0,Treatment period 1,TRTPR1,2012-10-30T09:01:00,1.0,1 HOURS POST DOSE,4.0,PT1H,DOSE,2012-10-30T08:01,1667203260.0,1,,1,A,104,OK,2012-10-30T08:01,2012-11-12,1668297600.0,25.0,25.0,YEARS,349.0,Years,YEARS,F,F,CAUCASIAN,CA,,HISPANIC OR LATINO,HIS,ABC,A / B /C,HISPANIC OR LATINO,100.0,CAUCASIAN,10.0,F,2.0,ABC,A / B /C,,,25/F/Ca,MOON/1001015,1.0,1.0,Y,Y,N,1.0,1.0,5.397605346934028e-79,19296.0,19296.0,C,C,3.0,3.0,1667203260.0,1667980860.0,28860.0,19305.0,19296.0,A / B /C,A / B /C,19309.0,PCCONC,PK concentration (ng/mL),DRUG ANAL 1 Plasma,PC_ANAL 1_NG/ML,4.0,1667203260.0,19296.0,28860.0,1667206860.0,19296.0,32460.0,3010.0,3010,15.27,GENERAL,5.397605346934028e-79,General,ANALYTE,1.0,Analyte,1 HOURS POST DOSE,DOSE,,,,1.0,1.0,A,A,PERIOD 1,1.0,1.0,1.0,A,1.0
10,Study001,Study001_1001015,1001015,1001,1,11.0,104,ng/mL,5540,5540.0,ng/mL,PLASMA,27.0,Plasma,PLASMA,,101.0,TREATMENT PERIOD 1,24.0,Treatment period 1,TRTPR1,2012-10-30T09:01:00,1.0,1 HOURS POST DOSE,4.0,PT1H,DOSE,2012-10-30T08:01,1667203260.0,1,,1,A,104,OK,2012-10-30T08:01,2012-11-12,1668297600.0,25.0,25.0,YEARS,349.0,Years,YEARS,F,F,CAUCASIAN,CA,,HISPANIC OR LATINO,HIS,ABC,A / B /C,HISPANIC OR LATINO,100.0,CAUCASIAN,10.0,F,2.0,ABC,A / B /C,,,25/F/Ca,MOON/1001015,1.0,1.0,Y,Y,N,1.0,1.0,5.397605346934028e-79,19296.0,19296.0,C,C,3.0,3.0,1667203260.0,1667980860.0,28860.0,19305.0,19296.0,A / B /C,A / B /C,19309.0,PCCONC,PK concentration (ng/mL),DRUG ANAL 2 Plasma,PC_ANAL 2_NG/ML,4.0,1667203260.0,19296.0,28860.0,1667206860.0,19296.0,32460.0,5540.0,5540,16.270000000000007,GENERAL,5.397605346934028e-79,General,ANALYTE,1.0,Analyte,1 HOURS POST DOSE,DOSE,,,,1.0,1.0,A,A,PERIOD 1,1.0,1.0,1.0,A,1.0
11,Study001,Study001_1001015,1001015,1001,1,12.0,104,ng/mL,3830,3830.0,ng/mL,PLASMA,27.0,Plasma,PLASMA,,101.0,TREATMENT PERIOD 1,24.0,Treatment period 1,TRTPR1,2012-10-30T09:01:00,1.0,1 HOURS POST DOSE,4.0,PT1H,DOSE,2012-10-30T08:01,1667203260.0,1,,1,A,104,OK,2012-10-30T08:01,2012-11-12,1668297600.0,25.0,25.0,YEARS,349.0,Years,YEARS,F,F,CAUCASIAN,CA,,HISPANIC OR LATINO,HIS,ABC,A / B /C,HISPANIC OR LATINO,100.0,CAUCASIAN,10.0,F,2.0,ABC,A / B /C,,,25/F/Ca,MOON/1001015,1.0,1.0,Y,Y,N,1.0,1.0,5.397605346934028e-79,19296.0,19296.0,C,C,3.0,3.0,1667203260.0,1667980860.0,28860.0,19305.0,19296.0,A / B /C,A / B /C,19309.0,PCCONC,PK concentration (ng/mL),DRUG ANAL 3 Plasma,PC_ANAL 3_NG/ML,4.0,1667203260.0,19296.0,28860.0,1667206860.0,19296.0,32460.0,3830.0,3830,17.270000000000007,GENERAL,5.397605346934028e-79,General,ANALYTE,1.0,Analyte,1 HOURS POST DOSE,DOSE,,,,1.0,1.0,A,A,PERIOD 1,1.0,1.0,1.0,A,1.0
12,Study001,Study001_1001015,1001015,1001,1,13.0,105,ng/mL,2610,2610.0,ng/mL,PLASMA,27.0,Plasma,PLASMA,,101.0,TREATMENT PERIOD 1,24.0,Treatment period 1,TRTPR1,2012-10-30T09:31:00,1.0,1.5 HOURS POST DOSE,5.0,PT1.5H,DOSE,2012-10-30T08:01,1667203260.0,1.5,,1.5,A,105,OK,2012-10-30T08:01,2012-11-12,1668297600.0,25.0,25.0,YEARS,349.0,Years,YEARS,F,F,CAUCASIAN,CA,,HISPANIC OR LATINO,HIS,ABC,A / B /C,HISPANIC OR LATINO,100.0,CAUCASIAN,10.0,F,2.0,ABC,A / B /C,,,25/F/Ca,MOON/1001015,1.0,1.0,Y,Y,N,1.0,1.0,5.397605346934028e-79,19296.0,19296.0,C,C,3.0,3.0,1667203260.0,1667980860.0,28860.0,19305.0,19296.0,A / B /C,A / B /C,19309.0,PCCONC,PK concentration (ng/mL),DRUG ANAL 1 Plasma,PC_ANAL 1_NG/ML,5.0,1667203260.0,19296.0,28860.0,1667208660.0,19296.0,34260.0,2610.0,2610,15.27,GENERAL,5.397605346934028e-79,General,ANALYTE,1.0,Analyte,1.5 HOURS POST DOSE,DOSE,,,,1.0,1.0,A,A,PERIOD 1,1.0,1.0,1.0,A,1.0
13,Study001,Study001_1001015,1001015,1001,1,14.0,105,ng/mL,11200,11200.0,ng/mL,PLASMA,27.0,Plasma,PLASMA,,101.0,TREATMENT PERIOD 1,24.0,Treatment period 1,TRTPR1,2012-10-30T09:31:00,1.0,1.5 HOURS POST DOSE,5.0,PT1.5H,DOSE,2012-10-30T08:01,1667203260.0,1.5,,1.5,A,105,OK,2012-10-30T08:01,2012-11-12,1668297600.0,25.0,25.0,YEARS,349.0,Years,YEARS,F,F,CAUCASIAN,CA,,HISPANIC OR LATINO,HIS,ABC,A / B /C,HISPANIC OR LATINO,100.0,CAUCASIAN,10.0,F,2.0,ABC,A / B /C,,,25/F/Ca,MOON/1001015,1.0,1.0,Y,Y,N,1.0,1.0,5.397605346934028e-79,19296.0,19296.0,C,C,3.0,3.0,1667203260.0,1667980860.0,28860.0,19305.0,19296.0,A / B /C,A / B /C,19309.0,PCCONC,PK concentration (ng/mL),DRUG ANAL 2 Plasma,PC_ANAL 2_NG/ML,5.0,1667203260.0,19296.0,28860.0,1667208660.0,19296.0,34260.0,11200.0,11200,16.270000000000007,GENERAL,5.397605346934028e-79,General,ANALYTE,1.0,Analyte,1.5 HOURS POST DOSE,DOSE,,,,1.0,1.0,A,A,PERIOD 1,1.0,1.0,1.0,A,1.0
14,Study001,Study001_1001015,1001015,1001,1,15.0,105,ng/mL,6660,6660.0,ng/mL,PLASMA,27.0,Plasma,PLASMA,,101.0,TREATMENT PERIOD 1,24.0,Treatment period 1,TRTPR1,2012-10-30T09:31:00,1.0,1.5 HOURS POST DOSE,5.0,PT1.5H,DOSE,2012-10-30T08:01,1667203260.0,1.5,,1.5,A,105,OK,2012-10-30T08:01,2012-11-12,1668297600.0,25.0,25.0,YEARS,349.0,Years,YEARS,F,F,CAUCASIAN,CA,,HISPANIC OR LATINO,HIS,ABC,A / B /C,HISPANIC OR LATINO,100.0,CAUCASIAN,10.0,F,2.0,ABC,A / B /C,,,25/F/Ca,MOON/1001015,1.0,1.0,Y,Y,N,1.0,1.0,5.397605346934028e-79,19296.0,19296.0,C,C,3.0,3.0,1667203260.0,1667980860.0,28860.0,19305.0,19296.0,A / B /C,A / B /C,19309.0,PCCONC,PK concentration (ng/mL),DRUG ANAL 3 Plasma,PC_ANAL 3_NG/ML,5.0,1667203260.0,19296.0,28860.0,1667208660.0,19296.0,34260.0,6660.0,6660,17.270000000000007,GENERAL,5.397605346934028e-79,General,ANALYTE,1.0,Analyte,1.5 HOURS POST DOSE,DOSE,,,,1.0,1.0,A,A,PERIOD 1,1.0,1.0,1.0,A,1.0
15,Study001,Study001_1001015,1001015,1001,1,16.0,106,ng/mL,1510,1510.0,ng/mL,PLASMA,27.0,Plasma,PLASMA,,101.0,TREATMENT PERIOD 1,24.0,Treatment period 1,TRTPR1,2012-10-30T10:01:00,1.0,2 HOURS POST DOSE,6.0,PT2H,DOSE,2012-10-30T08:01,1667203260.0,2,,2,A,106,OK,2012-10-30T08:01,2012-11-12,1668297600.0,25.0,25.0,YEARS,349.0,Years,YEARS,F,F,CAUCASIAN,CA,,HISPANIC OR LATINO,HIS,ABC,A / B /C,HISPANIC OR LATINO,100.0,CAUCASIAN,10.0,F,2.0,ABC,A / B /C,,,25/F/Ca,MOON/1001015,1.0,1.0,Y,Y,N,1.0,1.0,5.397605346934028e-79,19296.0,19296.0,C,C,3.0,3.0,1667203260.0,1667980860.0,28860.0,19305.0,19296.0,A / B /C,A / B /C,19309.0,PCCONC,PK concentration (ng/mL),DRUG ANAL 1 Plasma,PC_ANAL 1_NG/ML,6.0,1667203260.0,19296.0,28860.0,1667210460.0,19296.0,36060.0,1510.0,1510,15.27,GENERAL,5.397605346934028e-79,General,ANALYTE,1.0,Analyte,2 HOURS POST DOSE,DOSE,,,,1.0,1.0,A,A,PERIOD 1,1.0,1.0,1.0,A,1.0
16,Study001,Study001_1001015,1001015,1001,1,17.0,106,ng/mL,12800,12800.0,ng/mL,PLASMA,27.0,Plasma,PLASMA,,101.0,TREATMENT PERIOD 1,24.0,Treatment period 1,TRTPR1,2012-10-30T10:01:00,1.0,2 HOURS POST DOSE,6.0,PT2H,DOSE,2012-10-30T08:01,1667203260.0,2,,2,A,106,OK,2012-10-30T08:01,2012-11-12,1668297600.0,25.0,25.0,YEARS,349.0,Years,YEARS,F,F,CAUCASIAN,CA,,HISPANIC OR LATINO,HIS,ABC,A / B /C,HISPANIC OR LATINO,100.0,CAUCASIAN,10.0,F,2.0,ABC,A / B /C,,,25/F/Ca,MOON/1001015,1.0,1.0,Y,Y,N,1.0,1.0,5.397605346934028e-79,19296.0,19296.0,C,C,3.0,3.0,1667203260.0,1667980860.0,28860.0,19305.0,19296.0,A / B /C,A / B /C,19309.0,PCCONC,PK concentration (ng/mL),DRUG ANAL 2 Plasma,PC_ANAL 2_NG/ML,6.0,1667203260.0,19296.0,28860.0,1667210460.0,19296.0,36060.0,12800.0,12800,16.270000000000007,GENERAL,5.397605346934028e-79,General,ANALYTE,1.0,Analyte,2 HOURS POST DOSE,DOSE,,,,1.0,1.0,A,A,PERIOD 1,1.0,1.0,1.0,A,1.0
17,Study001,Study001_1001015,1001015,1001,1,18.0,106,ng/mL,6550,6550.0,ng/mL,PLASMA,27.0,Plasma,PLASMA,,101.0,TREATMENT PERIOD 1,24.0,Treatment period 1,TRTPR1,2012-10-30T10:01:00,1.0,2 HOURS POST DOSE,6.0,PT2H,DOSE,2012-10-30T08:01,1667203260.0,2,,2,A,106,OK,2012-10-30T08:01,2012-11-12,1668297600.0,25.0,25.0,YEARS,349.0,Years,YEARS,F,F,CAUCASIAN,CA,,HISPANIC OR LATINO,HIS,ABC,A / B /C,HISPANIC OR LATINO,100.0,CAUCASIAN,10.0,F,2.0,ABC,A / B /C,,,25/F/Ca,MOON/1001015,1.0,1.0,Y,Y,N,1.0,1.0,5.397605346934028e-79,19296.0,19296.0,C,C,3.0,3.0,1667203260.0,1667980860.0,28860.0,19305.0,19296.0,A / B /C,A / B /C,19309.0,PCCONC,PK concentration (ng/mL),DRUG ANAL 3 Plasma,PC_ANAL 3_NG/ML,6.0,1667203260.0,19296.0,28860.0,1667210460.0,19296.0,36060.0,6550.0,6550,17.270000000000007,GENERAL,5.397605346934028e-79,General,ANALYTE,1.0,Analyte,2 HOURS POST DOSE,DOSE,,,,1.0,1.0,A,A,PERIOD 1,1.0,1.0,1.0,A,1.0
18,Study001,Study001_1001015,1001015,1001,1,19.0,107,ng/mL,677,677.0,ng/mL,PLASMA,27.0,Plasma,PLASMA,,101.0,TREATMENT PERIOD 1,24.0,Treatment period 1,TRTPR1,2012-10-30T11:01:00,1.0,3 HOURS POST DOSE,7.0,PT3H,DOSE,2012-10-30T08:01,1667203260.0,3,,3,A,107,OK,2012-10-30T08:01,2012-11-12,1668297600.0,25.0,25.0,YEARS,349.0,Years,YEARS,F,F,CAUCASIAN,CA,,HISPANIC OR LATINO,HIS,ABC,A / B /C,HISPANIC OR LATINO,100.0,CAUCASIAN,10.0,F,2.0,ABC,A / B /C,,,25/F/Ca,MOON/1001015,1.0,1.0,Y,Y,N,1.0,1.0,5.397605346934028e-79,19296.0,19296.0,C,C,3.0,3.0,1667203260.0,1667980860.0,28860.0,19305.0,19296.0,A / B /C,A / B /C,19309.0,PCCONC,PK concentration (ng/mL),DRUG ANAL 1 Plasma,PC_ANAL 1_NG/ML,7.0,1667203260.0,19296.0,28860.0,1667214060.0,19296.0,39660.0,677.0,677,15.27,GENERAL,5.397605346934028e-79,General,ANALYTE,1.0,Analyte,3 HOURS POST DOSE,DOSE,,,,1.0,1.0,A,A,PERIOD 1,1.0,1.0,1.0,A,1.0
19,Study001,Study001_1001015,1001015,1001,1,20.0,107,ng/mL,16300,16300.0,ng/mL,PLASMA,27.0,Plasma,PLASMA,,101.0,TREATMENT PERIOD 1,24.0,Treatment period 1,TRTPR1,2012-10-30T11:01:00,1.0,3 HOURS POST DOSE,7.0,PT3H,DOSE,2012-10-30T08:01,1667203260.0,3,,3,A,107,OK,2012-10-30T08:01,2012-11-12,1668297600.0,25.0,25.0,YEARS,349.0,Years,YEARS,F,F,CAUCASIAN,CA,,HISPANIC OR LATINO,HIS,ABC,A / B /C,HISPANIC OR LATINO,100.0,CAUCASIAN,10.0,F,2.0,ABC,A / B /C,,,25/F/Ca,MOON/1001015,1.0,1.0,Y,Y,N,1.0,1.0,5.397605346934028e-79,19296.0,19296.0,C,C,3.0,3.0,1667203260.0,1667980860.0,28860.0,19305.0,19296.0,A / B /C,A / B /C,19309.0,PCCONC,PK concentration (ng/mL),DRUG ANAL 2 Plasma,PC_ANAL 2_NG/ML,7.0,1667203260.0,19296.0,28860.0,1667214060.0,19296.0,39660.0,16300.0,16300,16.270000000000007,GENERAL,5.397605346934028e-79,General,ANALYTE,1.0,Analyte,3 HOURS POST DOSE,DOSE,,,,1.0,1.0,A,A,PERIOD 1,1.0,1.0,1.0,A,1.0
20,Study001,Study001_1001015,1001015,1001,1,21.0,107,ng/mL,8820,8820.0,ng/mL,PLASMA,27.0,Plasma,PLASMA,,101.0,TREATMENT PERIOD 1,24.0,Treatment period 1,TRTPR1,2012-10-30T11:01:00,1.0,3 HOURS POST DOSE,7.0,PT3H,DOSE,2012-10-30T08:01,1667203260.0,3,,3,A,107,OK,2012-10-30T08:01,2012-11-12,1668297600.0,25.0,25.0,YEARS,349.0,Years,YEARS,F,F,CAUCASIAN,CA,,HISPANIC OR LATINO,HIS,ABC,A / B /C,HISPANIC OR LATINO,100.0,CAUCASIAN,10.0,F,2.0,ABC,A / B /C,,,25/F/Ca,MOON/1001015,1.0,1.0,Y,Y,N,1.0,1.0,5.397605346934028e-79,19296.0,19296.0,C,C,3.0,3.0,1667203260.0,1667980860.0,28860.0,19305.0,19296.0,A / B /C,A / B /C,19309.0,PCCONC,PK concentration (ng/mL),DRUG ANAL 3 Plasma,PC_ANAL 3_NG/ML,7.0,1667203260.0,19296.0,28860.0,1667214060.0,19296.0,39660.0,8820.0,8820,17.270000000000007,GENERAL,5.397605346934028e-79,General,ANALYTE,1.0,Analyte,3 HOURS POST DOSE,DOSE,,,,1.0,1.0,A,A,PERIOD 1,1.0,1.0,1.0,A,1.0
21,Study001,Study001_1001015,1001015,1001,1,22.0,108,ng/mL,162,162.0,ng/mL,PLASMA,27.0,Plasma,PLASMA,,101.0,TREATMENT PERIOD 1,24.0,Treatment period 1,TRTPR1,2012-10-30T12:01:00,1.0,4 HOURS POST DOSE,8.0,PT4H,DOSE,2012-10-30T08:01,1667203260.0,4,,4,A,108,OK,2012-10-30T08:01,2012-11-12,1668297600.0,25.0,25.0,YEARS,349.0,Years,YEARS,F,F,CAUCASIAN,CA,,HISPANIC OR LATINO,HIS,ABC,A / B /C,HISPANIC OR LATINO,100.0,CAUCASIAN,10.0,F,2.0,ABC,A / B /C,,,25/F/Ca,MOON/1001015,1.0,1.0,Y,Y,N,1.0,1.0,5.397605346934028e-79,19296.0,19296.0,C,C,3.0,3.0,1667203260.0,1667980860.0,28860.0,19305.0,19296.0,A / B /C,A / B /C,19309.0,PCCONC,PK concentration (ng/mL),DRUG ANAL 1 Plasma,PC_ANAL 1_NG/ML,8.0,1667203260.0,19296.0,28860.0,1667217660.0,19296.0,43260.0,162.0,162,15.27,GENERAL,5.397605346934028e-79,General,ANALYTE,1.0,Analyte,4 HOURS POST DOSE,DOSE,,,,1.0,1.0,A,A,PERIOD 1,1.0,1.0,1.0,A,1.0
22,Study001,Study001_1001015,1001015,1001,1,23.0,108,ng/mL,13600,13600.0,ng/mL,PLASMA,27.0,Plasma,PLASMA,,101.0,TREATMENT PERIOD 1,24.0,Treatment period 1,TRTPR1,2012-10-30T12:01:00,1.0,4 HOURS POST DOSE,8.0,PT4H,DOSE,2012-10-30T08:01,1667203260.0,4,,4,A,108,OK,2012-10-30T08:01,2012-11-12,1668297600.0,25.0,25.0,YEARS,349.0,Years,YEARS,F,F,CAUCASIAN,CA,,HISPANIC OR LATINO,HIS,ABC,A / B /C,HISPANIC OR LATINO,100.0,CAUCASIAN,10.0,F,2.0,ABC,A / B /C,,,25/F/Ca,MOON/1001015,1.0,1.0,Y,Y,N,1.0,1.0,5.397605346934028e-79,19296.0,19296.0,C,C,3.0,3.0,1667203260.0,1667980860.0,28860.0,19305.0,19296.0,A / B /C,A / B /C,19309.0,PCCONC,PK concentration (ng/mL),DRUG ANAL 2 Plasma,PC_ANAL 2_NG/ML,8.0,1667203260.0,19296.0,28860.0,1667217660.0,19296.0,43260.0,13600.0,13600,16.270000000000007,GENERAL,5.397605346934028e-79,General,ANALYTE,1.0,Analyte,4 HOURS POST DOSE,DOSE,,,,1.0,1.0,A,A,PERIOD 1,1.0,1.0,1.0,A,1.0
23,Study001,Study001_1001015,1001015,1001,1,24.0,108,ng/mL,9980,9980.0,ng/mL,PLASMA,27.0,Plasma,PLASMA,,101.0,TREATMENT PERIOD 1,24.0,Treatment period 1,TRTPR1,2012-10-30T12:01:00,1.0,4 HOURS POST DOSE,8.0,PT4H,DOSE,2012-10-30T08:01,1667203260.0,4,,4,A,108,OK,2012-10-30T08:01,2012-11-12,1668297600.0,25.0,25.0,YEARS,349.0,Years,YEARS,F,F,CAUCASIAN,CA,,HISPANIC OR LATINO,HIS,ABC,A / B /C,HISPANIC OR LATINO,100.0,CAUCASIAN,10.0,F,2.0,ABC,A / B /C,,,25/F/Ca,MOON/1001015,1.0,1.0,Y,Y,N,1.0,1.0,5.397605346934028e-79,19296.0,19296.0,C,C,3.0,3.0,1667203260.0,1667980860.0,28860.0,19305.0,19296.0,A / B /C,A / B /C,19309.0,PCCONC,PK concentration (ng/mL),DRUG ANAL 3 Plasma,PC_ANAL 3_NG/ML,8.0,1667203260.0,19296.0,28860.0,1667217660.0,19296.0,43260.0,9980.0,9980,17.270000000000007,GENERAL,5.397605346934028e-79,General,ANALYTE,1.0,Analyte,4 HOURS POST DOSE,DOSE,,,,1.0,1.0,A,A,PERIOD 1,1.0,1.0,1.0,A,1.0
24,Study001,Study001_1001015,1001015,1001,1,25.0,109,ng/mL,17,17.0,ng/mL,PLASMA,27.0,Plasma,PLASMA,,101.0,TREATMENT PERIOD 1,24.0,Treatment period 1,TRTPR1,2012-10-30T14:01:00,1.0,6 HOURS POST DOSE,9.0,PT6H,DOSE,2012-10-30T08:01,1667203260.0,6,,6,A,109,OK,2012-10-30T08:01,2012-11-12,1668297600.0,25.0,25.0,YEARS,349.0,Years,YEARS,F,F,CAUCASIAN,CA,,HISPANIC OR LATINO,HIS,ABC,A / B /C,HISPANIC OR LATINO,100.0,CAUCASIAN,10.0,F,2.0,ABC,A / B /C,,,25/F/Ca,MOON/1001015,1.0,1.0,Y,Y,N,1.0,1.0,5.397605346934028e-79,19296.0,19296.0,C,C,3.0,3.0,1667203260.0,1667980860.0,28860.0,19305.0,19296.0,A / B /C,A / B /C,19309.0,PCCONC,PK concentration (ng/mL),DRUG ANAL 1 Plasma,PC_ANAL 1_NG/ML,9.0,1667203260.0,19296.0,28860.0,1667224860.0,19296.0,50460.0,17.0,17,15.27,GENERAL,5.397605346934028e-79,General,ANALYTE,1.0,Analyte,6 HOURS POST DOSE,DOSE,,,,1.0,1.0,A,A,PERIOD 1,1.0,1.0,1.0,A,1.0
25,Study001,Study001_1001015,1001015,1001,1,26.0,109,ng/mL,9130,9130.0,ng/mL,PLASMA,27.0,Plasma,PLASMA,,101.0,TREATMENT PERIOD 1,24.0,Treatment period 1,TRTPR1,2012-10-30T14:01:00,1.0,6 HOURS POST DOSE,9.0,PT6H,DOSE,2012-10-30T08:01,1667203260.0,6,,6,A,109,OK,2012-10-30T08:01,2012-11-12,1668297600.0,25.0,25.0,YEARS,349.0,Years,YEARS,F,F,CAUCASIAN,CA,,HISPANIC OR LATINO,HIS,ABC,A / B /C,HISPANIC OR LATINO,100.0,CAUCASIAN,10.0,F,2.0,ABC,A / B /C,,,25/F/Ca,MOON/1001015,1.0,1.0,Y,Y,N,1.0,1.0,5.397605346934028e-79,19296.0,19296.0,C,C,3.0,3.0,1667203260.0,1667980860.0,28860.0,19305.0,19296.0,A / B /C,A / B /C,19309.0,PCCONC,PK concentration (ng/mL),DRUG ANAL 2 Plasma,PC_ANAL 2_NG/ML,9.0,1667203260.0,19296.0,28860.0,1667224860.0,19296.0,50460.0,9130.0,9130,16.270000000000007,GENERAL,5.397605346934028e-79,General,ANALYTE,1.0,Analyte,6 HOURS POST DOSE,DOSE,,,,1.0,1.0,A,A,PERIOD 1,1.0,1.0,1.0,A,1.0
26,Study001,Study001_1001015,1001015,1001,1,27.0,109,ng/mL,4570,4570.0,ng/mL,PLASMA,27.0,Plasma,PLASMA,,101.0,TREATMENT PERIOD 1,24.0,Treatment period 1,TRTPR1,2012-10-30T14:01:00,1.0,6 HOURS POST DOSE,9.0,PT6H,DOSE,2012-10-30T08:01,1667203260.0,6,,6,A,109,OK,2012-10-30T08:01,2012-11-12,1668297600.0,25.0,25.0,YEARS,349.0,Years,YEARS,F,F,CAUCASIAN,CA,,HISPANIC OR LATINO,HIS,ABC,A / B /C,HISPANIC OR LATINO,100.0,CAUCASIAN,10.0,F,2.0,ABC,A / B /C,,,25/F/Ca,MOON/1001015,1.0,1.0,Y,Y,N,1.0,1.0,5.397605346934028e-79,19296.0,19296.0,C,C,3.0,3.0,1667203260.0,1667980860.0,28860.0,19305.0,19296.0,A / B /C,A / B /C,19309.0,PCCONC,PK concentration (ng/mL),DRUG ANAL 3 Plasma,PC_ANAL 3_NG/ML,9.0,1667203260.0,19296.0,28860.0,1667224860.0,19296.0,50460.0,4570.0,4570,17.270000000000007,GENERAL,5.397605346934028e-79,General,ANALYTE,1.0,Analyte,6 HOURS POST DOSE,DOSE,,,,1.0,1.0,A,A,PERIOD 1,1.0,1.0,1.0,A,1.0
27,Study001,Study001_1001015,1001015,1001,1,28.0,110,ng/mL,      5.84,5.84,ng/mL,PLASMA,27.0,Plasma,PLASMA,,101.0,TREATMENT PERIOD 1,24.0,Treatment period 1,TRTPR1,2012-10-30T16:01:00,1.0,8 HOURS POST DOSE,10.0,PT8H,DOSE,2012-10-30T08:01,1667203260.0,8,,8,A,110,OK,2012-10-30T08:01,2012-11-12,1668297600.0,25.0,25.0,YEARS,349.0,Years,YEARS,F,F,CAUCASIAN,CA,,HISPANIC OR LATINO,HIS,ABC,A / B /C,HISPANIC OR LATINO,100.0,CAUCASIAN,10.0,F,2.0,ABC,A / B /C,,,25/F/Ca,MOON/1001015,1.0,1.0,Y,Y,N,1.0,1.0,5.397605346934028e-79,19296.0,19296.0,C,C,3.0,3.0,1667203260.0,1667980860.0,28860.0,19305.0,19296.0,A / B /C,A / B /C,19309.0,PCCONC,PK concentration (ng/mL),DRUG ANAL 1 Plasma,PC_ANAL 1_NG/ML,10.0,1667203260.0,19296.0,28860.0,1667232060.0,19296.0,57660.0,5.84,      5.84,15.27,GENERAL,5.397605346934028e-79,General,ANALYTE,1.0,Analyte,8 HOURS POST DOSE,DOSE,,,,1.0,1.0,A,A,PERIOD 1,1.0,1.0,1.0,A,1.0
28,Study001,Study001_1001015,1001015,1001,1,29.0,110,ng/mL,6050,6050.0,ng/mL,PLASMA,27.0,Plasma,PLASMA,,101.0,TREATMENT PERIOD 1,24.0,Treatment period 1,TRTPR1,2012-10-30T16:01:00,1.0,8 HOURS POST DOSE,10.0,PT8H,DOSE,2012-10-30T08:01,1667203260.0,8,,8,A,110,OK,2012-10-30T08:01,2012-11-12,1668297600.0,25.0,25.0,YEARS,349.0,Years,YEARS,F,F,CAUCASIAN,CA,,HISPANIC OR LATINO,HIS,ABC,A / B /C,HISPANIC OR LATINO,100.0,CAUCASIAN,10.0,F,2.0,ABC,A / B /C,,,25/F/Ca,MOON/1001015,1.0,1.0,Y,Y,N,1.0,1.0,5.397605346934028e-79,19296.0,19296.0,C,C,3.0,3.0,1667203260.0,1667980860.0,28860.0,19305.0,19296.0,A / B /C,A / B /C,19309.0,PCCONC,PK concentration (ng/mL),DRUG ANAL 2 Plasma,PC_ANAL 2_NG/ML,10.0,1667203260.0,19296.0,28860.0,1667232060.0,19296.0,57660.0,6050.0,6050,16.270000000000007,GENERAL,5.397605346934028e-79,General,ANALYTE,1.0,Analyte,8 HOURS POST DOSE,DOSE,,,,1.0,1.0,A,A,PERIOD 1,1.0,1.0,1.0,A,1.0
29,Study001,Study001_1001015,1001015,1001,1,30.0,110,ng/mL,1890,1890.0,ng/mL,PLASMA,27.0,Plasma,PLASMA,,101.0,TREATMENT PERIOD 1,24.0,Treatment period 1,TRTPR1,2012-10-30T16:01:00,1.0,8 HOURS POST DOSE,10.0,PT8H,DOSE,2012-10-30T08:01,1667203260.0,8,,8,A,110,OK,2012-10-30T08:01,2012-11-12,1668297600.0,25.0,25.0,YEARS,349.0,Years,YEARS,F,F,CAUCASIAN,CA,,HISPANIC OR LATINO,HIS,ABC,A / B /C,HISPANIC OR LATINO,100.0,CAUCASIAN,10.0,F,2.0,ABC,A / B /C,,,25/F/Ca,MOON/1001015,1.0,1.0,Y,Y,N,1.0,1.0,5.397605346934028e-79,19296.0,19296.0,C,C,3.0,3.0,1667203260.0,1667980860.0,28860.0,19305.0,19296.0,A / B /C,A / B /C,19309.0,PCCONC,PK concentration (ng/mL),DRUG ANAL 3 Plasma,PC_ANAL 3_NG/ML,10.0,1667203260.0,19296.0,28860.0,1667232060.0,19296.0,57660.0,1890.0,1890,17.270000000000007,GENERAL,5.397605346934028e-79,General,ANALYTE,1.0,Analyte,8 HOURS POST DOSE,DOSE,,,,1.0,1.0,A,A,PERIOD 1,1.0,1.0,1.0,A,1.0
30,Study001,Study001_1001015,1001015,1001,1,31.0,111,ng/mL,      1.29,1.2900000000000007,ng/mL,PLASMA,27.0,Plasma,PLASMA,,101.0,TREATMENT PERIOD 1,24.0,Treatment period 1,TRTPR1,2012-10-30T20:01:00,1.0,12 HOURS POST DOSE,11.0,PT12H,DOSE,2012-10-30T08:01,1667203260.0,12,,12,A,111,OK,2012-10-30T08:01,2012-11-12,1668297600.0,25.0,25.0,YEARS,349.0,Years,YEARS,F,F,CAUCASIAN,CA,,HISPANIC OR LATINO,HIS,ABC,A / B /C,HISPANIC OR LATINO,100.0,CAUCASIAN,10.0,F,2.0,ABC,A / B /C,,,25/F/Ca,MOON/1001015,1.0,1.0,Y,Y,N,1.0,1.0,5.397605346934028e-79,19296.0,19296.0,C,C,3.0,3.0,1667203260.0,1667980860.0,28860.0,19305.0,19296.0,A / B /C,A / B /C,19309.0,PCCONC,PK concentration (ng/mL),DRUG ANAL 1 Plasma,PC_ANAL 1_NG/ML,11.0,1667203260.0,19296.0,28860.0,1667246460.0,19296.0,72060.0,1.2900000000000007,      1.29,15.27,GENERAL,5.397605346934028e-79,General,ANALYTE,1.0,Analyte,12 HOURS POST DOSE,DOSE,,,,1.0,1.0,A,A,PERIOD 1,1.0,1.0,1.0,A,1.0
31,Study001,Study001_1001015,1001015,1001,1,32.0,111,ng/mL,3420,3420.0,ng/mL,PLASMA,27.0,Plasma,PLASMA,,101.0,TREATMENT PERIOD 1,24.0,Treatment period 1,TRTPR1,2012-10-30T20:01:00,1.0,12 HOURS POST DOSE,11.0,PT12H,DOSE,2012-10-30T08:01,1667203260.0,12,,12,A,111,OK,2012-10-30T08:01,2012-11-12,1668297600.0,25.0,25.0,YEARS,349.0,Years,YEARS,F,F,CAUCASIAN,CA,,HISPANIC OR LATINO,HIS,ABC,A / B /C,HISPANIC OR LATINO,100.0,CAUCASIAN,10.0,F,2.0,ABC,A / B /C,,,25/F/Ca,MOON/1001015,1.0,1.0,Y,Y,N,1.0,1.0,5.397605346934028e-79,19296.0,19296.0,C,C,3.0,3.0,1667203260.0,1667980860.0,28860.0,19305.0,19296.0,A / B /C,A / B /C,19309.0,PCCONC,PK concentration (ng/mL),DRUG ANAL 2 Plasma,PC_ANAL 2_NG/ML,11.0,1667203260.0,19296.0,28860.0,1667246460.0,19296.0,72060.0,3420.0,3420,16.270000000000007,GENERAL,5.397605346934028e-79,General,ANALYTE,1.0,Analyte,12 HOURS POST DOSE,DOSE,,,,1.0,1.0,A,A,PERIOD 1,1.0,1.0,1.0,A,1.0
32,Study001,Study001_1001015,1001015,1001,1,33.0,111,ng/mL,758,758.0,ng/mL,PLASMA,27.0,Plasma,PLASMA,,101.0,TREATMENT PERIOD 1,24.0,Treatment period 1,TRTPR1,2012-10-30T20:01:00,1.0,12 HOURS POST DOSE,11.0,PT12H,DOSE,2012-10-30T08:01,1667203260.0,12,,12,A,111,OK,2012-10-30T08:01,2012-11-12,1668297600.0,25.0,25.0,YEARS,349.0,Years,YEARS,F,F,CAUCASIAN,CA,,HISPANIC OR LATINO,HIS,ABC,A / B /C,HISPANIC OR LATINO,100.0,CAUCASIAN,10.0,F,2.0,ABC,A / B /C,,,25/F/Ca,MOON/1001015,1.0,1.0,Y,Y,N,1.0,1.0,5.397605346934028e-79,19296.0,19296.0,C,C,3.0,3.0,1667203260.0,1667980860.0,28860.0,19305.0,19296.0,A / B /C,A / B /C,19309.0,PCCONC,PK concentration (ng/mL),DRUG ANAL 3 Plasma,PC_ANAL 3_NG/ML,11.0,1667203260.0,19296.0,28860.0,1667246460.0,19296.0,72060.0,758.0,758,17.270000000000007,GENERAL,5.397605346934028e-79,General,ANALYTE,1.0,Analyte,12 HOURS POST DOSE,DOSE,,,,1.0,1.0,A,A,PERIOD 1,1.0,1.0,1.0,A,1.0
33,Study001,Study001_1001015,1001015,1001,1,34.0,112,ng/mL,0,5.397605346934028e-79,ng/mL,PLASMA,27.0,Plasma,PLASMA,1.0,102.0,TREATMENT PERIOD 1,24.0,Treatment period 1,TRTPR1,2012-10-31T08:01:00,2.0,24 HOURS POST DOSE,12.0,PT24H,DOSE,2012-10-30T08:01,1667203260.0,24,,24,A,112,OK,2012-10-30T08:01,2012-11-12,1668297600.0,25.0,25.0,YEARS,349.0,Years,YEARS,F,F,CAUCASIAN,CA,,HISPANIC OR LATINO,HIS,ABC,A / B /C,HISPANIC OR LATINO,100.0,CAUCASIAN,10.0,F,2.0,ABC,A / B /C,,,25/F/Ca,MOON/1001015,1.0,1.0,Y,Y,N,1.0,1.0,5.397605346934028e-79,19296.0,19296.0,C,C,3.0,3.0,1667203260.0,1667980860.0,28860.0,19305.0,19296.0,A / B /C,A / B /C,19309.0,PCCONC,PK concentration (ng/mL),DRUG ANAL 1 Plasma,PC_ANAL 1_NG/ML,12.0,1667203260.0,19296.0,28860.0,1667289660.0,19297.0,28860.0,5.397605346934028e-79,0,15.27,GENERAL,5.397605346934028e-79,General,ANALYTE,1.0,Analyte,24 HOURS POST DOSE,DOSE,,,,1.0,2.0,A,A,PERIOD 1,1.0,1.0,1.0,A,2.0
34,Study001,Study001_1001015,1001015,1001,1,35.0,112,ng/mL,984,984.0,ng/mL,PLASMA,27.0,Plasma,PLASMA,,102.0,TREATMENT PERIOD 1,24.0,Treatment period 1,TRTPR1,2012-10-31T08:01:00,2.0,24 HOURS POST DOSE,12.0,PT24H,DOSE,2012-10-30T08:01,1667203260.0,24,,24,A,112,OK,2012-10-30T08:01,2012-11-12,1668297600.0,25.0,25.0,YEARS,349.0,Years,YEARS,F,F,CAUCASIAN,CA,,HISPANIC OR LATINO,HIS,ABC,A / B /C,HISPANIC OR LATINO,100.0,CAUCASIAN,10.0,F,2.0,ABC,A / B /C,,,25/F/Ca,MOON/1001015,1.0,1.0,Y,Y,N,1.0,1.0,5.397605346934028e-79,19296.0,19296.0,C,C,3.0,3.0,1667203260.0,1667980860.0,28860.0,19305.0,19296.0,A / B /C,A / B /C,19309.0,PCCONC,PK concentration (ng/mL),DRUG ANAL 2 Plasma,PC_ANAL 2_NG/ML,12.0,1667203260.0,19296.0,28860.0,1667289660.0,19297.0,28860.0,984.0,984,16.270000000000007,GENERAL,5.397605346934028e-79,General,ANALYTE,1.0,Analyte,24 HOURS POST DOSE,DOSE,,,,1.0,2.0,A,A,PERIOD 1,1.0,1.0,1.0,A,2.0
35,Study001,Study001_1001015,1001015,1001,1,36.0,112,ng/mL,218,218.0,ng/mL,PLASMA,27.0,Plasma,PLASMA,,102.0,TREATMENT PERIOD 1,24.0,Treatment period 1,TRTPR1,2012-10-31T08:01:00,2.0,24 HOURS POST DOSE,12.0,PT24H,DOSE,2012-10-30T08:01,1667203260.0,24,,24,A,112,OK,2012-10-30T08:01,2012-11-12,1668297600.0,25.0,25.0,YEARS,349.0,Years,YEARS,F,F,CAUCASIAN,CA,,HISPANIC OR LATINO,HIS,ABC,A / B /C,HISPANIC OR LATINO,100.0,CAUCASIAN,10.0,F,2.0,ABC,A / B /C,,,25/F/Ca,MOON/1001015,1.0,1.0,Y,Y,N,1.0,1.0,5.397605346934028e-79,19296.0,19296.0,C,C,3.0,3.0,1667203260.0,1667980860.0,28860.0,19305.0,19296.0,A / B /C,A / B /C,19309.0,PCCONC,PK concentration (ng/mL),DRUG ANAL 3 Plasma,PC_ANAL 3_NG/ML,12.0,1667203260.0,19296.0,28860.0,1667289660.0,19297.0,28860.0,218.0,218,17.270000000000007,GENERAL,5.397605346934028e-79,General,ANALYTE,1.0,Analyte,24 HOURS POST DOSE,DOSE,,,,1.0,2.0,A,A,PERIOD 1,1.0,1.0,1.0,A,2.0
36,Study001,Study001_1001015,1001015,1001,1,37.0,113,ng/mL,0,5.397605346934028e-79,ng/mL,PLASMA,27.0,Plasma,PLASMA,1.0,103.0,TREATMENT PERIOD 1,24.0,Treatment period 1,TRTPR1,2012-11-01T08:01:00,3.0,48 HOURS POST DOSE,13.0,PT48H,DOSE,2012-10-30T08:01,1667203260.0,48,,48,A,113,OK,2012-10-30T08:01,2012-11-12,1668297600.0,25.0,25.0,YEARS,349.0,Years,YEARS,F,F,CAUCASIAN,CA,,HISPANIC OR LATINO,HIS,ABC,A / B /C,HISPANIC OR LATINO,100.0,CAUCASIAN,10.0,F,2.0,ABC,A / B /C,,,25/F/Ca,MOON/1001015,1.0,1.0,Y,Y,N,1.0,1.0,5.397605346934028e-79,19296.0,19296.0,C,C,3.0,3.0,1667203260.0,1667980860.0,28860.0,19305.0,19296.0,A / B /C,A / B /C,19309.0,PCCONC,PK concentration (ng/mL),DRUG ANAL 1 Plasma,PC_ANAL 1_NG/ML,13.0,1667203260.0,19296.0,28860.0,1667376060.0,19298.0,28860.0,5.397605346934028e-79,0,15.27,GENERAL,5.397605346934028e-79,General,ANALYTE,1.0,Analyte,48 HOURS POST DOSE,DOSE,,,,1.0,3.0,A,A,PERIOD 1,1.0,1.0,1.0,A,3.0
37,Study001,Study001_1001015,1001015,1001,1,38.0,113,ng/mL,130,130.0,ng/mL,PLASMA,27.0,Plasma,PLASMA,,103.0,TREATMENT PERIOD 1,24.0,Treatment period 1,TRTPR1,2012-11-01T08:01:00,3.0,48 HOURS POST DOSE,13.0,PT48H,DOSE,2012-10-30T08:01,1667203260.0,48,,48,A,113,OK,2012-10-30T08:01,2012-11-12,1668297600.0,25.0,25.0,YEARS,349.0,Years,YEARS,F,F,CAUCASIAN,CA,,HISPANIC OR LATINO,HIS,ABC,A / B /C,HISPANIC OR LATINO,100.0,CAUCASIAN,10.0,F,2.0,ABC,A / B /C,,,25/F/Ca,MOON/1001015,1.0,1.0,Y,Y,N,1.0,1.0,5.397605346934028e-79,19296.0,19296.0,C,C,3.0,3.0,1667203260.0,1667980860.0,28860.0,19305.0,19296.0,A / B /C,A / B /C,19309.0,PCCONC,PK concentration (ng/mL),DRUG ANAL 2 Plasma,PC_ANAL 2_NG/ML,13.0,1667203260.0,19296.0,28860.0,1667376060.0,19298.0,28860.0,130.0,130,16.270000000000007,GENERAL,5.397605346934028e-79,General,ANALYTE,1.0,Analyte,48 HOURS POST DOSE,DOSE,,,,1.0,3.0,A,A,PERIOD 1,1.0,1.0,1.0,A,3.0
38,Study001,Study001_1001015,1001015,1001,1,39.0,113,ng/mL,      43.3,43.300000000000004,ng/mL,PLASMA,27.0,Plasma,PLASMA,,103.0,TREATMENT PERIOD 1,24.0,Treatment period 1,TRTPR1,2012-11-01T08:01:00,3.0,48 HOURS POST DOSE,13.0,PT48H,DOSE,2012-10-30T08:01,1667203260.0,48,,48,A,113,OK,2012-10-30T08:01,2012-11-12,1668297600.0,25.0,25.0,YEARS,349.0,Years,YEARS,F,F,CAUCASIAN,CA,,HISPANIC OR LATINO,HIS,ABC,A / B /C,HISPANIC OR LATINO,100.0,CAUCASIAN,10.0,F,2.0,ABC,A / B /C,,,25/F/Ca,MOON/1001015,1.0,1.0,Y,Y,N,1.0,1.0,5.397605346934028e-79,19296.0,19296.0,C,C,3.0,3.0,1667203260.0,1667980860.0,28860.0,19305.0,19296.0,A / B /C,A / B /C,19309.0,PCCONC,PK concentration (ng/mL),DRUG ANAL 3 Plasma,PC_ANAL 3_NG/ML,13.0,1667203260.0,19296.0,28860.0,1667376060.0,19298.0,28860.0,43.300000000000004,      43.3,17.270000000000007,GENERAL,5.397605346934028e-79,General,ANALYTE,1.0,Analyte,48 HOURS POST DOSE,DOSE,,,,1.0,3.0,A,A,PERIOD 1,1.0,1.0,1.0,A,3.0
39,Study001,Study001_1001015,1001015,1001,1,40.0,114,ng/mL,0,5.397605346934028e-79,ng/mL,PLASMA,27.0,Plasma,PLASMA,1.0,104.0,TREATMENT PERIOD 1,24.0,Treatment period 1,TRTPR1,2012-11-02T08:01:00,4.0,72 HOURS POST DOSE,14.0,PT72H,DOSE,2012-10-30T08:01,1667203260.0,72,,72,A,114,OK,2012-10-30T08:01,2012-11-12,1668297600.0,25.0,25.0,YEARS,349.0,Years,YEARS,F,F,CAUCASIAN,CA,,HISPANIC OR LATINO,HIS,ABC,A / B /C,HISPANIC OR LATINO,100.0,CAUCASIAN,10.0,F,2.0,ABC,A / B /C,,,25/F/Ca,MOON/1001015,1.0,1.0,Y,Y,N,1.0,1.0,5.397605346934028e-79,19296.0,19296.0,C,C,3.0,3.0,1667203260.0,1667980860.0,28860.0,19305.0,19296.0,A / B /C,A / B /C,19309.0,PCCONC,PK concentration (ng/mL),DRUG ANAL 1 Plasma,PC_ANAL 1_NG/ML,14.0,1667203260.0,19296.0,28860.0,1667462460.0,19299.0,28860.0,5.397605346934028e-79,0,15.27,GENERAL,5.397605346934028e-79,General,ANALYTE,1.0,Analyte,72 HOURS POST DOSE,DOSE,,,,1.0,4.0,A,A,PERIOD 1,1.0,1.0,1.0,A,4.0
40,Study001,Study001_1001015,1001015,1001,1,41.0,114,ng/mL,      23.4,23.400000000000002,ng/mL,PLASMA,27.0,Plasma,PLASMA,,104.0,TREATMENT PERIOD 1,24.0,Treatment period 1,TRTPR1,2012-11-02T08:01:00,4.0,72 HOURS POST DOSE,14.0,PT72H,DOSE,2012-10-30T08:01,1667203260.0,72,,72,A,114,OK,2012-10-30T08:01,2012-11-12,1668297600.0,25.0,25.0,YEARS,349.0,Years,YEARS,F,F,CAUCASIAN,CA,,HISPANIC OR LATINO,HIS,ABC,A / B /C,HISPANIC OR LATINO,100.0,CAUCASIAN,10.0,F,2.0,ABC,A / B /C,,,25/F/Ca,MOON/1001015,1.0,1.0,Y,Y,N,1.0,1.0,5.397605346934028e-79,19296.0,19296.0,C,C,3.0,3.0,1667203260.0,1667980860.0,28860.0,19305.0,19296.0,A / B /C,A / B /C,19309.0,PCCONC,PK concentration (ng/mL),DRUG ANAL 2 Plasma,PC_ANAL 2_NG/ML,14.0,1667203260.0,19296.0,28860.0,1667462460.0,19299.0,28860.0,23.400000000000002,      23.4,16.270000000000007,GENERAL,5.397605346934028e-79,General,ANALYTE,1.0,Analyte,72 HOURS POST DOSE,DOSE,,,,1.0,4.0,A,A,PERIOD 1,1.0,1.0,1.0,A,4.0
41,Study001,Study001_1001015,1001015,1001,1,42.0,114,ng/mL,0,5.397605346934028e-79,ng/mL,PLASMA,27.0,Plasma,PLASMA,10.0,104.0,TREATMENT PERIOD 1,24.0,Treatment period 1,TRTPR1,2012-11-02T08:01:00,4.0,72 HOURS POST DOSE,14.0,PT72H,DOSE,2012-10-30T08:01,1667203260.0,72,,72,A,114,OK,2012-10-30T08:01,2012-11-12,1668297600.0,25.0,25.0,YEARS,349.0,Years,YEARS,F,F,CAUCASIAN,CA,,HISPANIC OR LATINO,HIS,ABC,A / B /C,HISPANIC OR LATINO,100.0,CAUCASIAN,10.0,F,2.0,ABC,A / B /C,,,25/F/Ca,MOON/1001015,1.0,1.0,Y,Y,N,1.0,1.0,5.397605346934028e-79,19296.0,19296.0,C,C,3.0,3.0,1667203260.0,1667980860.0,28860.0,19305.0,19296.0,A / B /C,A / B /C,19309.0,PCCONC,PK concentration (ng/mL),DRUG ANAL 3 Plasma,PC_ANAL 3_NG/ML,14.0,1667203260.0,19296.0,28860.0,1667462460.0,19299.0,28860.0,5.397605346934028e-79,0,17.270000000000007,GENERAL,5.397605346934028e-79,General,ANALYTE,1.0,Analyte,72 HOURS POST DOSE,DOSE,,,,1.0,4.0,A,A,PERIOD 1,1.0,1.0,1.0,A,4.0
42,Study001,Study001_1001015,1001015,1001,1,43.0,115,ng/mL,0,5.397605346934028e-79,ng/mL,PLASMA,27.0,Plasma,PLASMA,1.0,199.0,TREATMENT PERIOD 1,24.0,Treatment period 1,TRTPR1,2012-11-03T08:01:00,5.0,96 HOURS POST DOSE,15.0,PT96H,DOSE,2012-10-30T08:01,1667203260.0,96,,96,A,115,OK,2012-10-30T08:01,2012-11-12,1668297600.0,25.0,25.0,YEARS,349.0,Years,YEARS,F,F,CAUCASIAN,CA,,HISPANIC OR LATINO,HIS,ABC,A / B /C,HISPANIC OR LATINO,100.0,CAUCASIAN,10.0,F,2.0,ABC,A / B /C,,,25/F/Ca,MOON/1001015,1.0,1.0,Y,Y,N,1.0,1.0,5.397605346934028e-79,19296.0,19296.0,C,C,3.0,3.0,1667203260.0,1667980860.0,28860.0,19305.0,19296.0,A / B /C,A / B /C,19309.0,PCCONC,PK concentration (ng/mL),DRUG ANAL 1 Plasma,PC_ANAL 1_NG/ML,15.0,1667203260.0,19296.0,28860.0,1667548860.0,19300.0,28860.0,5.397605346934028e-79,0,15.27,GENERAL,5.397605346934028e-79,General,ANALYTE,1.0,Analyte,96 HOURS POST DOSE,DOSE,,,,1.0,5.0,A,A,PERIOD 1,1.0,1.0,1.0,A,5.0
43,Study001,Study001_1001015,1001015,1001,1,44.0,115,ng/mL,0,5.397605346934028e-79,ng/mL,PLASMA,27.0,Plasma,PLASMA,20.0,199.0,TREATMENT PERIOD 1,24.0,Treatment period 1,TRTPR1,2012-11-03T08:01:00,5.0,96 HOURS POST DOSE,15.0,PT96H,DOSE,2012-10-30T08:01,1667203260.0,96,,96,A,115,OK,2012-10-30T08:01,2012-11-12,1668297600.0,25.0,25.0,YEARS,349.0,Years,YEARS,F,F,CAUCASIAN,CA,,HISPANIC OR LATINO,HIS,ABC,A / B /C,HISPANIC OR LATINO,100.0,CAUCASIAN,10.0,F,2.0,ABC,A / B /C,,,25/F/Ca,MOON/1001015,1.0,1.0,Y,Y,N,1.0,1.0,5.397605346934028e-79,19296.0,19296.0,C,C,3.0,3.0,1667203260.0,1667980860.0,28860.0,19305.0,19296.0,A / B /C,A / B /C,19309.0,PCCONC,PK concentration (ng/mL),DRUG ANAL 2 Plasma,PC_ANAL 2_NG/ML,15.0,1667203260.0,19296.0,28860.0,1667548860.0,19300.0,28860.0,5.397605346934028e-79,0,16.270000000000007,GENERAL,5.397605346934028e-79,General,ANALYTE,1.0,Analyte,96 HOURS POST DOSE,DOSE,,,,1.0,5.0,A,A,PERIOD 1,1.0,1.0,1.0,A,5.0
44,Study001,Study001_1001015,1001015,1001,1,45.0,115,ng/mL,0,5.397605346934028e-79,ng/mL,PLASMA,27.0,Plasma,PLASMA,10.0,199.0,TREATMENT PERIOD 1,24.0,Treatment period 1,TRTPR1,2012-11-03T08:01:00,5.0,96 HOURS POST DOSE,15.0,PT96H,DOSE,2012-10-30T08:01,1667203260.0,96,,96,A,115,OK,2012-10-30T08:01,2012-11-12,1668297600.0,25.0,25.0,YEARS,349.0,Years,YEARS,F,F,CAUCASIAN,CA,,HISPANIC OR LATINO,HIS,ABC,A / B /C,HISPANIC OR LATINO,100.0,CAUCASIAN,10.0,F,2.0,ABC,A / B /C,,,25/F/Ca,MOON/1001015,1.0,1.0,Y,Y,N,1.0,1.0,5.397605346934028e-79,19296.0,19296.0,C,C,3.0,3.0,1667203260.0,1667980860.0,28860.0,19305.0,19296.0,A / B /C,A / B /C,19309.0,PCCONC,PK concentration (ng/mL),DRUG ANAL 3 Plasma,PC_ANAL 3_NG/ML,15.0,1667203260.0,19296.0,28860.0,1667548860.0,19300.0,28860.0,5.397605346934028e-79,0,17.270000000000007,GENERAL,5.397605346934028e-79,General,ANALYTE,1.0,Analyte,96 HOURS POST DOSE,DOSE,,,,1.0,5.0,A,A,PERIOD 1,1.0,1.0,1.0,A,5.0
45,Study001,Study001_1001015,1001015,1001,1,46.0,116,ng/mL,0,5.397605346934028e-79,ng/mL,PLASMA,27.0,Plasma,PLASMA,1.0,205.0,TREATMENT PERIOD 2,25.0,Treatment period 2,TRTPR2,2012-11-08T07:51:00,10.0,0 HOURS PRE DOSE,1.0,-PT0H,DOSE,2012-11-08T08:01,1667980860.0,0,,0,A,116,OK,2012-10-30T08:01,2012-11-12,1668297600.0,25.0,25.0,YEARS,349.0,Years,YEARS,F,F,CAUCASIAN,CA,,HISPANIC OR LATINO,HIS,ABC,A / B /C,HISPANIC OR LATINO,100.0,CAUCASIAN,10.0,F,2.0,ABC,A / B /C,,,25/F/Ca,MOON/1001015,1.0,1.0,Y,Y,N,1.0,1.0,5.397605346934028e-79,19296.0,19296.0,C,C,3.0,3.0,1667203260.0,1667980860.0,28860.0,19305.0,19296.0,A / B /C,A / B /C,19309.0,PCCONC,PK concentration (ng/mL),DRUG ANAL 1 Plasma,PC_ANAL 1_NG/ML,1.0,1667980860.0,19305.0,28860.0,1667980260.0,19305.0,28260.0,5.397605346934028e-79,0,15.27,GENERAL,5.397605346934028e-79,General,ANALYTE,1.0,Analyte,0 HOURS PRE DOSE,DOSE,,,,1.0,1.0,C,C,PERIOD 3,3.0,3.0,3.0,C,1.0
46,Study001,Study001_1001015,1001015,1001,1,47.0,116,ng/mL,0,5.397605346934028e-79,ng/mL,PLASMA,27.0,Plasma,PLASMA,20.0,205.0,TREATMENT PERIOD 2,25.0,Treatment period 2,TRTPR2,2012-11-08T07:51:00,10.0,0 HOURS PRE DOSE,1.0,-PT0H,DOSE,2012-11-08T08:01,1667980860.0,0,,0,A,116,OK,2012-10-30T08:01,2012-11-12,1668297600.0,25.0,25.0,YEARS,349.0,Years,YEARS,F,F,CAUCASIAN,CA,,HISPANIC OR LATINO,HIS,ABC,A / B /C,HISPANIC OR LATINO,100.0,CAUCASIAN,10.0,F,2.0,ABC,A / B /C,,,25/F/Ca,MOON/1001015,1.0,1.0,Y,Y,N,1.0,1.0,5.397605346934028e-79,19296.0,19296.0,C,C,3.0,3.0,1667203260.0,1667980860.0,28860.0,19305.0,19296.0,A / B /C,A / B /C,19309.0,PCCONC,PK concentration (ng/mL),DRUG ANAL 2 Plasma,PC_ANAL 2_NG/ML,1.0,1667980860.0,19305.0,28860.0,1667980260.0,19305.0,28260.0,5.397605346934028e-79,0,16.270000000000007,GENERAL,5.397605346934028e-79,General,ANALYTE,1.0,Analyte,0 HOURS PRE DOSE,DOSE,,,,1.0,1.0,C,C,PERIOD 3,3.0,3.0,3.0,C,1.0
47,Study001,Study001_1001015,1001015,1001,1,48.0,116,ng/mL,0,5.397605346934028e-79,ng/mL,PLASMA,27.0,Plasma,PLASMA,10.0,205.0,TREATMENT PERIOD 2,25.0,Treatment period 2,TRTPR2,2012-11-08T07:51:00,10.0,0 HOURS PRE DOSE,1.0,-PT0H,DOSE,2012-11-08T08:01,1667980860.0,0,,0,A,116,OK,2012-10-30T08:01,2012-11-12,1668297600.0,25.0,25.0,YEARS,349.0,Years,YEARS,F,F,CAUCASIAN,CA,,HISPANIC OR LATINO,HIS,ABC,A / B /C,HISPANIC OR LATINO,100.0,CAUCASIAN,10.0,F,2.0,ABC,A / B /C,,,25/F/Ca,MOON/1001015,1.0,1.0,Y,Y,N,1.0,1.0,5.397605346934028e-79,19296.0,19296.0,C,C,3.0,3.0,1667203260.0,1667980860.0,28860.0,19305.0,19296.0,A / B /C,A / B /C,19309.0,PCCONC,PK concentration (ng/mL),DRUG ANAL 3 Plasma,PC_ANAL 3_NG/ML,1.0,1667980860.0,19305.0,28860.0,1667980260.0,19305.0,28260.0,5.397605346934028e-79,0,17.270000000000007,GENERAL,5.397605346934028e-79,General,ANALYTE,1.0,Analyte,0 HOURS PRE DOSE,DOSE,,,,1.0,1.0,C,C,PERIOD 3,3.0,3.0,3.0,C,1.0
48,Study001,Study001_1001015,1001015,1001,1,49.0,117,ng/mL,1670,1670.0,ng/mL,PLASMA,27.0,Plasma,PLASMA,,205.0,TREATMENT PERIOD 2,25.0,Treatment period 2,TRTPR2,2012-11-08T08:16:00,10.0,0.25 HOURS POST DOSE,2.0,PT0.25H,DOSE,2012-11-08T08:01,1667980860.0,0.25,,0.25,A,117,OK,2012-10-30T08:01,2012-11-12,1668297600.0,25.0,25.0,YEARS,349.0,Years,YEARS,F,F,CAUCASIAN,CA,,HISPANIC OR LATINO,HIS,ABC,A / B /C,HISPANIC OR LATINO,100.0,CAUCASIAN,10.0,F,2.0,ABC,A / B /C,,,25/F/Ca,MOON/1001015,1.0,1.0,Y,Y,N,1.0,1.0,5.397605346934028e-79,19296.0,19296.0,C,C,3.0,3.0,1667203260.0,1667980860.0,28860.0,19305.0,19296.0,A / B /C,A / B /C,19309.0,PCCONC,PK concentration (ng/mL),DRUG ANAL 1 Plasma,PC_ANAL 1_NG/ML,2.0,1667980860.0,19305.0,28860.0,1667981760.0,19305.0,29760.0,1670.0,1670,15.27,GENERAL,5.397605346934028e-79,General,ANALYTE,1.0,Analyte,0.25 HOURS POST DOSE,DOSE,,,,1.0,1.0,C,C,PERIOD 3,3.0,3.0,3.0,C,1.0
49,Study001,Study001_1001015,1001015,1001,1,50.0,117,ng/mL,      83.1,83.10000000000001,ng/mL,PLASMA,27.0,Plasma,PLASMA,,205.0,TREATMENT PERIOD 2,25.0,Treatment period 2,TRTPR2,2012-11-08T08:16:00,10.0,0.25 HOURS POST DOSE,2.0,PT0.25H,DOSE,2012-11-08T08:01,1667980860.0,0.25,,0.25,A,117,OK,2012-10-30T08:01,2012-11-12,1668297600.0,25.0,25.0,YEARS,349.0,Years,YEARS,F,F,CAUCASIAN,CA,,HISPANIC OR LATINO,HIS,ABC,A / B /C,HISPANIC OR LATINO,100.0,CAUCASIAN,10.0,F,2.0,ABC,A / B /C,,,25/F/Ca,MOON/1001015,1.0,1.0,Y,Y,N,1.0,1.0,5.397605346934028e-79,19296.0,19296.0,C,C,3.0,3.0,1667203260.0,1667980860.0,28860.0,19305.0,19296.0,A / B /C,A / B /C,19309.0,PCCONC,PK concentration (ng/mL),DRUG ANAL 2 Plasma,PC_ANAL 2_NG/ML,2.0,1667980860.0,19305.0,28860.0,1667981760.0,19305.0,29760.0,83.10000000000001,      83.1,16.270000000000007,GENERAL,5.397605346934028e-79,General,ANALYTE,1.0,Analyte,0.25 HOURS POST DOSE,DOSE,,,,1.0,1.0,C,C,PERIOD 3,3.0,3.0,3.0,C,1.0
50,Study001,Study001_1001015,1001015,1001,1,51.0,117,ng/mL,470,470.0,ng/mL,PLASMA,27.0,Plasma,PLASMA,,205.0,TREATMENT PERIOD 2,25.0,Treatment period 2,TRTPR2,2012-11-08T08:16:00,10.0,0.25 HOURS POST DOSE,2.0,PT0.25H,DOSE,2012-11-08T08:01,1667980860.0,0.25,,0.25,A,117,OK,2012-10-30T08:01,2012-11-12,1668297600.0,25.0,25.0,YEARS,349.0,Years,YEARS,F,F,CAUCASIAN,CA,,HISPANIC OR LATINO,HIS,ABC,A / B /C,HISPANIC OR LATINO,100.0,CAUCASIAN,10.0,F,2.0,ABC,A / B /C,,,25/F/Ca,MOON/1001015,1.0,1.0,Y,Y,N,1.0,1.0,5.397605346934028e-79,19296.0,19296.0,C,C,3.0,3.0,1667203260.0,1667980860.0,28860.0,19305.0,19296.0,A / B /C,A / B /C,19309.0,PCCONC,PK concentration (ng/mL),DRUG ANAL 3 Plasma,PC_ANAL 3_NG/ML,2.0,1667980860.0,19305.0,28860.0,1667981760.0,19305.0,29760.0,470.0,470,17.270000000000007,GENERAL,5.397605346934028e-79,General,ANALYTE,1.0,Analyte,0.25 HOURS POST DOSE,DOSE,,,,1.0,1.0,C,C,PERIOD 3,3.0,3.0,3.0,C,1.0
51,Study001,Study001_1001015,1001015,1001,1,52.0,118,ng/mL,3750,3750.0,ng/mL,PLASMA,27.0,Plasma,PLASMA,,205.0,TREATMENT PERIOD 2,25.0,Treatment period 2,TRTPR2,2012-11-08T08:28:00,10.0,0.5 HOURS POST DOSE,3.0,PT0.5H,DOSE,2012-11-08T08:01,1667980860.0,0.5,,0.45,A,118,OK,2012-10-30T08:01,2012-11-12,1668297600.0,25.0,25.0,YEARS,349.0,Years,YEARS,F,F,CAUCASIAN,CA,,HISPANIC OR LATINO,HIS,ABC,A / B /C,HISPANIC OR LATINO,100.0,CAUCASIAN,10.0,F,2.0,ABC,A / B /C,,,25/F/Ca,MOON/1001015,1.0,1.0,Y,Y,N,1.0,1.0,5.397605346934028e-79,19296.0,19296.0,C,C,3.0,3.0,1667203260.0,1667980860.0,28860.0,19305.0,19296.0,A / B /C,A / B /C,19309.0,PCCONC,PK concentration (ng/mL),DRUG ANAL 1 Plasma,PC_ANAL 1_NG/ML,3.0,1667980860.0,19305.0,28860.0,1667982480.0,19305.0,30480.0,3750.0,3750,15.27,GENERAL,5.397605346934028e-79,General,ANALYTE,1.0,Analyte,0.5 HOURS POST DOSE,DOSE,,,,1.0,1.0,C,C,PERIOD 3,3.0,3.0,3.0,C,1.0
52,Study001,Study001_1001015,1001015,1001,1,53.0,118,ng/mL,2420,2420.0,ng/mL,PLASMA,27.0,Plasma,PLASMA,,205.0,TREATMENT PERIOD 2,25.0,Treatment period 2,TRTPR2,2012-11-08T08:28:00,10.0,0.5 HOURS POST DOSE,3.0,PT0.5H,DOSE,2012-11-08T08:01,1667980860.0,0.5,,0.45,A,118,OK,2012-10-30T08:01,2012-11-12,1668297600.0,25.0,25.0,YEARS,349.0,Years,YEARS,F,F,CAUCASIAN,CA,,HISPANIC OR LATINO,HIS,ABC,A / B /C,HISPANIC OR LATINO,100.0,CAUCASIAN,10.0,F,2.0,ABC,A / B /C,,,25/F/Ca,MOON/1001015,1.0,1.0,Y,Y,N,1.0,1.0,5.397605346934028e-79,19296.0,19296.0,C,C,3.0,3.0,1667203260.0,1667980860.0,28860.0,19305.0,19296.0,A / B /C,A / B /C,19309.0,PCCONC,PK concentration (ng/mL),DRUG ANAL 2 Plasma,PC_ANAL 2_NG/ML,3.0,1667980860.0,19305.0,28860.0,1667982480.0,19305.0,30480.0,2420.0,2420,16.270000000000007,GENERAL,5.397605346934028e-79,General,ANALYTE,1.0,Analyte,0.5 HOURS POST DOSE,DOSE,,,,1.0,1.0,C,C,PERIOD 3,3.0,3.0,3.0,C,1.0
53,Study001,Study001_1001015,1001015,1001,1,54.0,118,ng/mL,1100,1100.0,ng/mL,PLASMA,27.0,Plasma,PLASMA,,205.0,TREATMENT PERIOD 2,25.0,Treatment period 2,TRTPR2,2012-11-08T08:28:00,10.0,0.5 HOURS POST DOSE,3.0,PT0.5H,DOSE,2012-11-08T08:01,1667980860.0,0.5,,0.45,A,118,OK,2012-10-30T08:01,2012-11-12,1668297600.0,25.0,25.0,YEARS,349.0,Years,YEARS,F,F,CAUCASIAN,CA,,HISPANIC OR LATINO,HIS,ABC,A / B /C,HISPANIC OR LATINO,100.0,CAUCASIAN,10.0,F,2.0,ABC,A / B /C,,,25/F/Ca,MOON/1001015,1.0,1.0,Y,Y,N,1.0,1.0,5.397605346934028e-79,19296.0,19296.0,C,C,3.0,3.0,1667203260.0,1667980860.0,28860.0,19305.0,19296.0,A / B /C,A / B /C,19309.0,PCCONC,PK concentration (ng/mL),DRUG ANAL 3 Plasma,PC_ANAL 3_NG/ML,3.0,1667980860.0,19305.0,28860.0,1667982480.0,19305.0,30480.0,1100.0,1100,17.270000000000007,GENERAL,5.397605346934028e-79,General,ANALYTE,1.0,Analyte,0.5 HOURS POST DOSE,DOSE,,,,1.0,1.0,C,C,PERIOD 3,3.0,3.0,3.0,C,1.0
54,Study001,Study001_1001015,1001015,1001,1,55.0,119,ng/mL,1800,1800.0,ng/mL,PLASMA,27.0,Plasma,PLASMA,,205.0,TREATMENT PERIOD 2,25.0,Treatment period 2,TRTPR2,2012-11-08T09:02:00,10.0,1 HOURS POST DOSE,4.0,PT1H,DOSE,2012-11-08T08:01,1667980860.0,1,,1.01666666,A,119,OK,2012-10-30T08:01,2012-11-12,1668297600.0,25.0,25.0,YEARS,349.0,Years,YEARS,F,F,CAUCASIAN,CA,,HISPANIC OR LATINO,HIS,ABC,A / B /C,HISPANIC OR LATINO,100.0,CAUCASIAN,10.0,F,2.0,ABC,A / B /C,,,25/F/Ca,MOON/1001015,1.0,1.0,Y,Y,N,1.0,1.0,5.397605346934028e-79,19296.0,19296.0,C,C,3.0,3.0,1667203260.0,1667980860.0,28860.0,19305.0,19296.0,A / B /C,A / B /C,19309.0,PCCONC,PK concentration (ng/mL),DRUG ANAL 1 Plasma,PC_ANAL 1_NG/ML,4.0,1667980860.0,19305.0,28860.0,1667984520.0,19305.0,32520.0,1800.0,1800,15.27,GENERAL,5.397605346934028e-79,General,ANALYTE,1.0,Analyte,1 HOURS POST DOSE,DOSE,,,,1.0,1.0,C,C,PERIOD 3,3.0,3.0,3.0,C,1.0
55,Study001,Study001_1001015,1001015,1001,1,56.0,119,ng/mL,11600,11600.0,ng/mL,PLASMA,27.0,Plasma,PLASMA,,205.0,TREATMENT PERIOD 2,25.0,Treatment period 2,TRTPR2,2012-11-08T09:02:00,10.0,1 HOURS POST DOSE,4.0,PT1H,DOSE,2012-11-08T08:01,1667980860.0,1,,1.01666666,A,119,OK,2012-10-30T08:01,2012-11-12,1668297600.0,25.0,25.0,YEARS,349.0,Years,YEARS,F,F,CAUCASIAN,CA,,HISPANIC OR LATINO,HIS,ABC,A / B /C,HISPANIC OR LATINO,100.0,CAUCASIAN,10.0,F,2.0,ABC,A / B /C,,,25/F/Ca,MOON/1001015,1.0,1.0,Y,Y,N,1.0,1.0,5.397605346934028e-79,19296.0,19296.0,C,C,3.0,3.0,1667203260.0,1667980860.0,28860.0,19305.0,19296.0,A / B /C,A / B /C,19309.0,PCCONC,PK concentration (ng/mL),DRUG ANAL 2 Plasma,PC_ANAL 2_NG/ML,4.0,1667980860.0,19305.0,28860.0,1667984520.0,19305.0,32520.0,11600.0,11600,16.270000000000007,GENERAL,5.397605346934028e-79,General,ANALYTE,1.0,Analyte,1 HOURS POST DOSE,DOSE,,,,1.0,1.0,C,C,PERIOD 3,3.0,3.0,3.0,C,1.0
56,Study001,Study001_1001015,1001015,1001,1,57.0,119,ng/mL,3740,3740.0,ng/mL,PLASMA,27.0,Plasma,PLASMA,,205.0,TREATMENT PERIOD 2,25.0,Treatment period 2,TRTPR2,2012-11-08T09:02:00,10.0,1 HOURS POST DOSE,4.0,PT1H,DOSE,2012-11-08T08:01,1667980860.0,1,,1.01666666,A,119,OK,2012-10-30T08:01,2012-11-12,1668297600.0,25.0,25.0,YEARS,349.0,Years,YEARS,F,F,CAUCASIAN,CA,,HISPANIC OR LATINO,HIS,ABC,A / B /C,HISPANIC OR LATINO,100.0,CAUCASIAN,10.0,F,2.0,ABC,A / B /C,,,25/F/Ca,MOON/1001015,1.0,1.0,Y,Y,N,1.0,1.0,5.397605346934028e-79,19296.0,19296.0,C,C,3.0,3.0,1667203260.0,1667980860.0,28860.0,19305.0,19296.0,A / B /C,A / B /C,19309.0,PCCONC,PK concentration (ng/mL),DRUG ANAL 3 Plasma,PC_ANAL 3_NG/ML,4.0,1667980860.0,19305.0,28860.0,1667984520.0,19305.0,32520.0,3740.0,3740,17.270000000000007,GENERAL,5.397605346934028e-79,General,ANALYTE,1.0,Analyte,1 HOURS POST DOSE,DOSE,,,,1.0,1.0,C,C,PERIOD 3,3.0,3.0,3.0,C,1.0
57,Study001,Study001_1001015,1001015,1001,1,58.0,120,ng/mL,729,729.0,ng/mL,PLASMA,27.0,Plasma,PLASMA,,205.0,TREATMENT PERIOD 2,25.0,Treatment period 2,TRTPR2,2012-11-08T09:31:00,10.0,1.5 HOURS POST DOSE,5.0,PT1.5H,DOSE,2012-11-08T08:01,1667980860.0,1.5,,1.5,A,120,OK,2012-10-30T08:01,2012-11-12,1668297600.0,25.0,25.0,YEARS,349.0,Years,YEARS,F,F,CAUCASIAN,CA,,HISPANIC OR LATINO,HIS,ABC,A / B /C,HISPANIC OR LATINO,100.0,CAUCASIAN,10.0,F,2.0,ABC,A / B /C,,,25/F/Ca,MOON/1001015,1.0,1.0,Y,Y,N,1.0,1.0,5.397605346934028e-79,19296.0,19296.0,C,C,3.0,3.0,1667203260.0,1667980860.0,28860.0,19305.0,19296.0,A / B /C,A / B /C,19309.0,PCCONC,PK concentration (ng/mL),DRUG ANAL 1 Plasma,PC_ANAL 1_NG/ML,5.0,1667980860.0,19305.0,28860.0,1667986260.0,19305.0,34260.0,729.0,729,15.27,GENERAL,5.397605346934028e-79,General,ANALYTE,1.0,Analyte,1.5 HOURS POST DOSE,DOSE,,,,1.0,1.0,C,C,PERIOD 3,3.0,3.0,3.0,C,1.0
58,Study001,Study001_1001015,1001015,1001,1,59.0,120,ng/mL,14800,14800.0,ng/mL,PLASMA,27.0,Plasma,PLASMA,,205.0,TREATMENT PERIOD 2,25.0,Treatment period 2,TRTPR2,2012-11-08T09:31:00,10.0,1.5 HOURS POST DOSE,5.0,PT1.5H,DOSE,2012-11-08T08:01,1667980860.0,1.5,,1.5,A,120,OK,2012-10-30T08:01,2012-11-12,1668297600.0,25.0,25.0,YEARS,349.0,Years,YEARS,F,F,CAUCASIAN,CA,,HISPANIC OR LATINO,HIS,ABC,A / B /C,HISPANIC OR LATINO,100.0,CAUCASIAN,10.0,F,2.0,ABC,A / B /C,,,25/F/Ca,MOON/1001015,1.0,1.0,Y,Y,N,1.0,1.0,5.397605346934028e-79,19296.0,19296.0,C,C,3.0,3.0,1667203260.0,1667980860.0,28860.0,19305.0,19296.0,A / B /C,A / B /C,19309.0,PCCONC,PK concentration (ng/mL),DRUG ANAL 2 Plasma,PC_ANAL 2_NG/ML,5.0,1667980860.0,19305.0,28860.0,1667986260.0,19305.0,34260.0,14800.0,14800,16.270000000000007,GENERAL,5.397605346934028e-79,General,ANALYTE,1.0,Analyte,1.5 HOURS POST DOSE,DOSE,,,,1.0,1.0,C,C,PERIOD 3,3.0,3.0,3.0,C,1.0
59,Study001,Study001_1001015,1001015,1001,1,60.0,120,ng/mL,4800,4800.0,ng/mL,PLASMA,27.0,Plasma,PLASMA,,205.0,TREATMENT PERIOD 2,25.0,Treatment period 2,TRTPR2,2012-11-08T09:31:00,10.0,1.5 HOURS POST DOSE,5.0,PT1.5H,DOSE,2012-11-08T08:01,1667980860.0,1.5,,1.5,A,120,OK,2012-10-30T08:01,2012-11-12,1668297600.0,25.0,25.0,YEARS,349.0,Years,YEARS,F,F,CAUCASIAN,CA,,HISPANIC OR LATINO,HIS,ABC,A / B /C,HISPANIC OR LATINO,100.0,CAUCASIAN,10.0,F,2.0,ABC,A / B /C,,,25/F/Ca,MOON/1001015,1.0,1.0,Y,Y,N,1.0,1.0,5.397605346934028e-79,19296.0,19296.0,C,C,3.0,3.0,1667203260.0,1667980860.0,28860.0,19305.0,19296.0,A / B /C,A / B /C,19309.0,PCCONC,PK concentration (ng/mL),DRUG ANAL 3 Plasma,PC_ANAL 3_NG/ML,5.0,1667980860.0,19305.0,28860.0,1667986260.0,19305.0,34260.0,4800.0,4800,17.270000000000007,GENERAL,5.397605346934028e-79,General,ANALYTE,1.0,Analyte,1.5 HOURS POST DOSE,DOSE,,,,1.0,1.0,C,C,PERIOD 3,3.0,3.0,3.0,C,1.0
60,Study001,Study001_1001015,1001015,1001,1,61.0,121,ng/mL,552,552.0,ng/mL,PLASMA,27.0,Plasma,PLASMA,,205.0,TREATMENT PERIOD 2,25.0,Treatment period 2,TRTPR2,2012-11-08T10:02:00,10.0,2 HOURS POST DOSE,6.0,PT2H,DOSE,2012-11-08T08:01,1667980860.0,2,,2.01666666,A,121,OK,2012-10-30T08:01,2012-11-12,1668297600.0,25.0,25.0,YEARS,349.0,Years,YEARS,F,F,CAUCASIAN,CA,,HISPANIC OR LATINO,HIS,ABC,A / B /C,HISPANIC OR LATINO,100.0,CAUCASIAN,10.0,F,2.0,ABC,A / B /C,,,25/F/Ca,MOON/1001015,1.0,1.0,Y,Y,N,1.0,1.0,5.397605346934028e-79,19296.0,19296.0,C,C,3.0,3.0,1667203260.0,1667980860.0,28860.0,19305.0,19296.0,A / B /C,A / B /C,19309.0,PCCONC,PK concentration (ng/mL),DRUG ANAL 1 Plasma,PC_ANAL 1_NG/ML,6.0,1667980860.0,19305.0,28860.0,1667988120.0,19305.0,36120.0,552.0,552,15.27,GENERAL,5.397605346934028e-79,General,ANALYTE,1.0,Analyte,2 HOURS POST DOSE,DOSE,,,,1.0,1.0,C,C,PERIOD 3,3.0,3.0,3.0,C,1.0
61,Study001,Study001_1001015,1001015,1001,1,62.0,121,ng/mL,15000,15000.0,ng/mL,PLASMA,27.0,Plasma,PLASMA,,205.0,TREATMENT PERIOD 2,25.0,Treatment period 2,TRTPR2,2012-11-08T10:02:00,10.0,2 HOURS POST DOSE,6.0,PT2H,DOSE,2012-11-08T08:01,1667980860.0,2,,2.01666666,A,121,OK,2012-10-30T08:01,2012-11-12,1668297600.0,25.0,25.0,YEARS,349.0,Years,YEARS,F,F,CAUCASIAN,CA,,HISPANIC OR LATINO,HIS,ABC,A / B /C,HISPANIC OR LATINO,100.0,CAUCASIAN,10.0,F,2.0,ABC,A / B /C,,,25/F/Ca,MOON/1001015,1.0,1.0,Y,Y,N,1.0,1.0,5.397605346934028e-79,19296.0,19296.0,C,C,3.0,3.0,1667203260.0,1667980860.0,28860.0,19305.0,19296.0,A / B /C,A / B /C,19309.0,PCCONC,PK concentration (ng/mL),DRUG ANAL 2 Plasma,PC_ANAL 2_NG/ML,6.0,1667980860.0,19305.0,28860.0,1667988120.0,19305.0,36120.0,15000.0,15000,16.270000000000007,GENERAL,5.397605346934028e-79,General,ANALYTE,1.0,Analyte,2 HOURS POST DOSE,DOSE,,,,1.0,1.0,C,C,PERIOD 3,3.0,3.0,3.0,C,1.0
62,Study001,Study001_1001015,1001015,1001,1,63.0,121,ng/mL,5320,5320.0,ng/mL,PLASMA,27.0,Plasma,PLASMA,,205.0,TREATMENT PERIOD 2,25.0,Treatment period 2,TRTPR2,2012-11-08T10:02:00,10.0,2 HOURS POST DOSE,6.0,PT2H,DOSE,2012-11-08T08:01,1667980860.0,2,,2.01666666,A,121,OK,2012-10-30T08:01,2012-11-12,1668297600.0,25.0,25.0,YEARS,349.0,Years,YEARS,F,F,CAUCASIAN,CA,,HISPANIC OR LATINO,HIS,ABC,A / B /C,HISPANIC OR LATINO,100.0,CAUCASIAN,10.0,F,2.0,ABC,A / B /C,,,25/F/Ca,MOON/1001015,1.0,1.0,Y,Y,N,1.0,1.0,5.397605346934028e-79,19296.0,19296.0,C,C,3.0,3.0,1667203260.0,1667980860.0,28860.0,19305.0,19296.0,A / B /C,A / B /C,19309.0,PCCONC,PK concentration (ng/mL),DRUG ANAL 3 Plasma,PC_ANAL 3_NG/ML,6.0,1667980860.0,19305.0,28860.0,1667988120.0,19305.0,36120.0,5320.0,5320,17.270000000000007,GENERAL,5.397605346934028e-79,General,ANALYTE,1.0,Analyte,2 HOURS POST DOSE,DOSE,,,,1.0,1.0,C,C,PERIOD 3,3.0,3.0,3.0,C,1.0
63,Study001,Study001_1001015,1001015,1001,1,64.0,122,ng/mL,365,365.0,ng/mL,PLASMA,27.0,Plasma,PLASMA,,205.0,TREATMENT PERIOD 2,25.0,Treatment period 2,TRTPR2,2012-11-08T11:01:00,10.0,3 HOURS POST DOSE,7.0,PT3H,DOSE,2012-11-08T08:01,1667980860.0,3,,3,A,122,OK,2012-10-30T08:01,2012-11-12,1668297600.0,25.0,25.0,YEARS,349.0,Years,YEARS,F,F,CAUCASIAN,CA,,HISPANIC OR LATINO,HIS,ABC,A / B /C,HISPANIC OR LATINO,100.0,CAUCASIAN,10.0,F,2.0,ABC,A / B /C,,,25/F/Ca,MOON/1001015,1.0,1.0,Y,Y,N,1.0,1.0,5.397605346934028e-79,19296.0,19296.0,C,C,3.0,3.0,1667203260.0,1667980860.0,28860.0,19305.0,19296.0,A / B /C,A / B /C,19309.0,PCCONC,PK concentration (ng/mL),DRUG ANAL 1 Plasma,PC_ANAL 1_NG/ML,7.0,1667980860.0,19305.0,28860.0,1667991660.0,19305.0,39660.0,365.0,365,15.27,GENERAL,5.397605346934028e-79,General,ANALYTE,1.0,Analyte,3 HOURS POST DOSE,DOSE,,,,1.0,1.0,C,C,PERIOD 3,3.0,3.0,3.0,C,1.0
64,Study001,Study001_1001015,1001015,1001,1,65.0,122,ng/mL,14300,14300.0,ng/mL,PLASMA,27.0,Plasma,PLASMA,,205.0,TREATMENT PERIOD 2,25.0,Treatment period 2,TRTPR2,2012-11-08T11:01:00,10.0,3 HOURS POST DOSE,7.0,PT3H,DOSE,2012-11-08T08:01,1667980860.0,3,,3,A,122,OK,2012-10-30T08:01,2012-11-12,1668297600.0,25.0,25.0,YEARS,349.0,Years,YEARS,F,F,CAUCASIAN,CA,,HISPANIC OR LATINO,HIS,ABC,A / B /C,HISPANIC OR LATINO,100.0,CAUCASIAN,10.0,F,2.0,ABC,A / B /C,,,25/F/Ca,MOON/1001015,1.0,1.0,Y,Y,N,1.0,1.0,5.397605346934028e-79,19296.0,19296.0,C,C,3.0,3.0,1667203260.0,1667980860.0,28860.0,19305.0,19296.0,A / B /C,A / B /C,19309.0,PCCONC,PK concentration (ng/mL),DRUG ANAL 2 Plasma,PC_ANAL 2_NG/ML,7.0,1667980860.0,19305.0,28860.0,1667991660.0,19305.0,39660.0,14300.0,14300,16.270000000000007,GENERAL,5.397605346934028e-79,General,ANALYTE,1.0,Analyte,3 HOURS POST DOSE,DOSE,,,,1.0,1.0,C,C,PERIOD 3,3.0,3.0,3.0,C,1.0
65,Study001,Study001_1001015,1001015,1001,1,66.0,122,ng/mL,5280,5280.0,ng/mL,PLASMA,27.0,Plasma,PLASMA,,205.0,TREATMENT PERIOD 2,25.0,Treatment period 2,TRTPR2,2012-11-08T11:01:00,10.0,3 HOURS POST DOSE,7.0,PT3H,DOSE,2012-11-08T08:01,1667980860.0,3,,3,A,122,OK,2012-10-30T08:01,2012-11-12,1668297600.0,25.0,25.0,YEARS,349.0,Years,YEARS,F,F,CAUCASIAN,CA,,HISPANIC OR LATINO,HIS,ABC,A / B /C,HISPANIC OR LATINO,100.0,CAUCASIAN,10.0,F,2.0,ABC,A / B /C,,,25/F/Ca,MOON/1001015,1.0,1.0,Y,Y,N,1.0,1.0,5.397605346934028e-79,19296.0,19296.0,C,C,3.0,3.0,1667203260.0,1667980860.0,28860.0,19305.0,19296.0,A / B /C,A / B /C,19309.0,PCCONC,PK concentration (ng/mL),DRUG ANAL 3 Plasma,PC_ANAL 3_NG/ML,7.0,1667980860.0,19305.0,28860.0,1667991660.0,19305.0,39660.0,5280.0,5280,17.270000000000007,GENERAL,5.397605346934028e-79,General,ANALYTE,1.0,Analyte,3 HOURS POST DOSE,DOSE,,,,1.0,1.0,C,C,PERIOD 3,3.0,3.0,3.0,C,1.0
66,Study001,Study001_1001015,1001015,1001,1,67.0,123,ng/mL,      80.2,80.2,ng/mL,PLASMA,27.0,Plasma,PLASMA,,205.0,TREATMENT PERIOD 2,25.0,Treatment period 2,TRTPR2,2012-11-08T12:01:00,10.0,4 HOURS POST DOSE,8.0,PT4H,DOSE,2012-11-08T08:01,1667980860.0,4,,4,A,123,OK,2012-10-30T08:01,2012-11-12,1668297600.0,25.0,25.0,YEARS,349.0,Years,YEARS,F,F,CAUCASIAN,CA,,HISPANIC OR LATINO,HIS,ABC,A / B /C,HISPANIC OR LATINO,100.0,CAUCASIAN,10.0,F,2.0,ABC,A / B /C,,,25/F/Ca,MOON/1001015,1.0,1.0,Y,Y,N,1.0,1.0,5.397605346934028e-79,19296.0,19296.0,C,C,3.0,3.0,1667203260.0,1667980860.0,28860.0,19305.0,19296.0,A / B /C,A / B /C,19309.0,PCCONC,PK concentration (ng/mL),DRUG ANAL 1 Plasma,PC_ANAL 1_NG/ML,8.0,1667980860.0,19305.0,28860.0,1667995260.0,19305.0,43260.0,80.2,      80.2,15.27,GENERAL,5.397605346934028e-79,General,ANALYTE,1.0,Analyte,4 HOURS POST DOSE,DOSE,,,,1.0,1.0,C,C,PERIOD 3,3.0,3.0,3.0,C,1.0
67,Study001,Study001_1001015,1001015,1001,1,68.0,123,ng/mL,12500,12500.0,ng/mL,PLASMA,27.0,Plasma,PLASMA,,205.0,TREATMENT PERIOD 2,25.0,Treatment period 2,TRTPR2,2012-11-08T12:01:00,10.0,4 HOURS POST DOSE,8.0,PT4H,DOSE,2012-11-08T08:01,1667980860.0,4,,4,A,123,OK,2012-10-30T08:01,2012-11-12,1668297600.0,25.0,25.0,YEARS,349.0,Years,YEARS,F,F,CAUCASIAN,CA,,HISPANIC OR LATINO,HIS,ABC,A / B /C,HISPANIC OR LATINO,100.0,CAUCASIAN,10.0,F,2.0,ABC,A / B /C,,,25/F/Ca,MOON/1001015,1.0,1.0,Y,Y,N,1.0,1.0,5.397605346934028e-79,19296.0,19296.0,C,C,3.0,3.0,1667203260.0,1667980860.0,28860.0,19305.0,19296.0,A / B /C,A / B /C,19309.0,PCCONC,PK concentration (ng/mL),DRUG ANAL 2 Plasma,PC_ANAL 2_NG/ML,8.0,1667980860.0,19305.0,28860.0,1667995260.0,19305.0,43260.0,12500.0,12500,16.270000000000007,GENERAL,5.397605346934028e-79,General,ANALYTE,1.0,Analyte,4 HOURS POST DOSE,DOSE,,,,1.0,1.0,C,C,PERIOD 3,3.0,3.0,3.0,C,1.0
68,Study001,Study001_1001015,1001015,1001,1,69.0,123,ng/mL,5760,5760.0,ng/mL,PLASMA,27.0,Plasma,PLASMA,,205.0,TREATMENT PERIOD 2,25.0,Treatment period 2,TRTPR2,2012-11-08T12:01:00,10.0,4 HOURS POST DOSE,8.0,PT4H,DOSE,2012-11-08T08:01,1667980860.0,4,,4,A,123,OK,2012-10-30T08:01,2012-11-12,1668297600.0,25.0,25.0,YEARS,349.0,Years,YEARS,F,F,CAUCASIAN,CA,,HISPANIC OR LATINO,HIS,ABC,A / B /C,HISPANIC OR LATINO,100.0,CAUCASIAN,10.0,F,2.0,ABC,A / B /C,,,25/F/Ca,MOON/1001015,1.0,1.0,Y,Y,N,1.0,1.0,5.397605346934028e-79,19296.0,19296.0,C,C,3.0,3.0,1667203260.0,1667980860.0,28860.0,19305.0,19296.0,A / B /C,A / B /C,19309.0,PCCONC,PK concentration (ng/mL),DRUG ANAL 3 Plasma,PC_ANAL 3_NG/ML,8.0,1667980860.0,19305.0,28860.0,1667995260.0,19305.0,43260.0,5760.0,5760,17.270000000000007,GENERAL,5.397605346934028e-79,General,ANALYTE,1.0,Analyte,4 HOURS POST DOSE,DOSE,,,,1.0,1.0,C,C,PERIOD 3,3.0,3.0,3.0,C,1.0
69,Study001,Study001_1001015,1001015,1001,1,70.0,124,ng/mL,      19.2,19.2,ng/mL,PLASMA,27.0,Plasma,PLASMA,,205.0,TREATMENT PERIOD 2,25.0,Treatment period 2,TRTPR2,2012-11-08T14:01:00,10.0,6 HOURS POST DOSE,9.0,PT6H,DOSE,2012-11-08T08:01,1667980860.0,6,,6,A,124,OK,2012-10-30T08:01,2012-11-12,1668297600.0,25.0,25.0,YEARS,349.0,Years,YEARS,F,F,CAUCASIAN,CA,,HISPANIC OR LATINO,HIS,ABC,A / B /C,HISPANIC OR LATINO,100.0,CAUCASIAN,10.0,F,2.0,ABC,A / B /C,,,25/F/Ca,MOON/1001015,1.0,1.0,Y,Y,N,1.0,1.0,5.397605346934028e-79,19296.0,19296.0,C,C,3.0,3.0,1667203260.0,1667980860.0,28860.0,19305.0,19296.0,A / B /C,A / B /C,19309.0,PCCONC,PK concentration (ng/mL),DRUG ANAL 1 Plasma,PC_ANAL 1_NG/ML,9.0,1667980860.0,19305.0,28860.0,1668002460.0,19305.0,50460.0,19.2,      19.2,15.27,GENERAL,5.397605346934028e-79,General,ANALYTE,1.0,Analyte,6 HOURS POST DOSE,DOSE,,,,1.0,1.0,C,C,PERIOD 3,3.0,3.0,3.0,C,1.0
70,Study001,Study001_1001015,1001015,1001,1,71.0,124,ng/mL,7770,7770.0,ng/mL,PLASMA,27.0,Plasma,PLASMA,,205.0,TREATMENT PERIOD 2,25.0,Treatment period 2,TRTPR2,2012-11-08T14:01:00,10.0,6 HOURS POST DOSE,9.0,PT6H,DOSE,2012-11-08T08:01,1667980860.0,6,,6,A,124,OK,2012-10-30T08:01,2012-11-12,1668297600.0,25.0,25.0,YEARS,349.0,Years,YEARS,F,F,CAUCASIAN,CA,,HISPANIC OR LATINO,HIS,ABC,A / B /C,HISPANIC OR LATINO,100.0,CAUCASIAN,10.0,F,2.0,ABC,A / B /C,,,25/F/Ca,MOON/1001015,1.0,1.0,Y,Y,N,1.0,1.0,5.397605346934028e-79,19296.0,19296.0,C,C,3.0,3.0,1667203260.0,1667980860.0,28860.0,19305.0,19296.0,A / B /C,A / B /C,19309.0,PCCONC,PK concentration (ng/mL),DRUG ANAL 2 Plasma,PC_ANAL 2_NG/ML,9.0,1667980860.0,19305.0,28860.0,1668002460.0,19305.0,50460.0,7770.0,7770,16.270000000000007,GENERAL,5.397605346934028e-79,General,ANALYTE,1.0,Analyte,6 HOURS POST DOSE,DOSE,,,,1.0,1.0,C,C,PERIOD 3,3.0,3.0,3.0,C,1.0
71,Study001,Study001_1001015,1001015,1001,1,72.0,124,ng/mL,2480,2480.0,ng/mL,PLASMA,27.0,Plasma,PLASMA,,205.0,TREATMENT PERIOD 2,25.0,Treatment period 2,TRTPR2,2012-11-08T14:01:00,10.0,6 HOURS POST DOSE,9.0,PT6H,DOSE,2012-11-08T08:01,1667980860.0,6,,6,A,124,OK,2012-10-30T08:01,2012-11-12,1668297600.0,25.0,25.0,YEARS,349.0,Years,YEARS,F,F,CAUCASIAN,CA,,HISPANIC OR LATINO,HIS,ABC,A / B /C,HISPANIC OR LATINO,100.0,CAUCASIAN,10.0,F,2.0,ABC,A / B /C,,,25/F/Ca,MOON/1001015,1.0,1.0,Y,Y,N,1.0,1.0,5.397605346934028e-79,19296.0,19296.0,C,C,3.0,3.0,1667203260.0,1667980860.0,28860.0,19305.0,19296.0,A / B /C,A / B /C,19309.0,PCCONC,PK concentration (ng/mL),DRUG ANAL 3 Plasma,PC_ANAL 3_NG/ML,9.0,1667980860.0,19305.0,28860.0,1668002460.0,19305.0,50460.0,2480.0,2480,17.270000000000007,GENERAL,5.397605346934028e-79,General,ANALYTE,1.0,Analyte,6 HOURS POST DOSE,DOSE,,,,1.0,1.0,C,C,PERIOD 3,3.0,3.0,3.0,C,1.0
72,Study001,Study001_1001015,1001015,1001,1,73.0,125,ng/mL,       4.8,4.8,ng/mL,PLASMA,27.0,Plasma,PLASMA,,205.0,TREATMENT PERIOD 2,25.0,Treatment period 2,TRTPR2,2012-11-08T16:01:00,10.0,8 HOURS POST DOSE,10.0,PT8H,DOSE,2012-11-08T08:01,1667980860.0,8,,8,A,125,OK,2012-10-30T08:01,2012-11-12,1668297600.0,25.0,25.0,YEARS,349.0,Years,YEARS,F,F,CAUCASIAN,CA,,HISPANIC OR LATINO,HIS,ABC,A / B /C,HISPANIC OR LATINO,100.0,CAUCASIAN,10.0,F,2.0,ABC,A / B /C,,,25/F/Ca,MOON/1001015,1.0,1.0,Y,Y,N,1.0,1.0,5.397605346934028e-79,19296.0,19296.0,C,C,3.0,3.0,1667203260.0,1667980860.0,28860.0,19305.0,19296.0,A / B /C,A / B /C,19309.0,PCCONC,PK concentration (ng/mL),DRUG ANAL 1 Plasma,PC_ANAL 1_NG/ML,10.0,1667980860.0,19305.0,28860.0,1668009660.0,19305.0,57660.0,4.8,       4.8,15.27,GENERAL,5.397605346934028e-79,General,ANALYTE,1.0,Analyte,8 HOURS POST DOSE,DOSE,,,,1.0,1.0,C,C,PERIOD 3,3.0,3.0,3.0,C,1.0
73,Study001,Study001_1001015,1001015,1001,1,74.0,125,ng/mL,6060,6060.0,ng/mL,PLASMA,27.0,Plasma,PLASMA,,205.0,TREATMENT PERIOD 2,25.0,Treatment period 2,TRTPR2,2012-11-08T16:01:00,10.0,8 HOURS POST DOSE,10.0,PT8H,DOSE,2012-11-08T08:01,1667980860.0,8,,8,A,125,OK,2012-10-30T08:01,2012-11-12,1668297600.0,25.0,25.0,YEARS,349.0,Years,YEARS,F,F,CAUCASIAN,CA,,HISPANIC OR LATINO,HIS,ABC,A / B /C,HISPANIC OR LATINO,100.0,CAUCASIAN,10.0,F,2.0,ABC,A / B /C,,,25/F/Ca,MOON/1001015,1.0,1.0,Y,Y,N,1.0,1.0,5.397605346934028e-79,19296.0,19296.0,C,C,3.0,3.0,1667203260.0,1667980860.0,28860.0,19305.0,19296.0,A / B /C,A / B /C,19309.0,PCCONC,PK concentration (ng/mL),DRUG ANAL 2 Plasma,PC_ANAL 2_NG/ML,10.0,1667980860.0,19305.0,28860.0,1668009660.0,19305.0,57660.0,6060.0,6060,16.270000000000007,GENERAL,5.397605346934028e-79,General,ANALYTE,1.0,Analyte,8 HOURS POST DOSE,DOSE,,,,1.0,1.0,C,C,PERIOD 3,3.0,3.0,3.0,C,1.0
74,Study001,Study001_1001015,1001015,1001,1,75.0,125,ng/mL,1200,1200.0,ng/mL,PLASMA,27.0,Plasma,PLASMA,,205.0,TREATMENT PERIOD 2,25.0,Treatment period 2,TRTPR2,2012-11-08T16:01:00,10.0,8 HOURS POST DOSE,10.0,PT8H,DOSE,2012-11-08T08:01,1667980860.0,8,,8,A,125,OK,2012-10-30T08:01,2012-11-12,1668297600.0,25.0,25.0,YEARS,349.0,Years,YEARS,F,F,CAUCASIAN,CA,,HISPANIC OR LATINO,HIS,ABC,A / B /C,HISPANIC OR LATINO,100.0,CAUCASIAN,10.0,F,2.0,ABC,A / B /C,,,25/F/Ca,MOON/1001015,1.0,1.0,Y,Y,N,1.0,1.0,5.397605346934028e-79,19296.0,19296.0,C,C,3.0,3.0,1667203260.0,1667980860.0,28860.0,19305.0,19296.0,A / B /C,A / B /C,19309.0,PCCONC,PK concentration (ng/mL),DRUG ANAL 3 Plasma,PC_ANAL 3_NG/ML,10.0,1667980860.0,19305.0,28860.0,1668009660.0,19305.0,57660.0,1200.0,1200,17.270000000000007,GENERAL,5.397605346934028e-79,General,ANALYTE,1.0,Analyte,8 HOURS POST DOSE,DOSE,,,,1.0,1.0,C,C,PERIOD 3,3.0,3.0,3.0,C,1.0
75,Study001,Study001_1001015,1001015,1001,1,76.0,126,ng/mL,      1.01,1.010000000000001,ng/mL,PLASMA,27.0,Plasma,PLASMA,,205.0,TREATMENT PERIOD 2,25.0,Treatment period 2,TRTPR2,2012-11-08T20:01:00,10.0,12 HOURS POST DOSE,11.0,PT12H,DOSE,2012-11-08T08:01,1667980860.0,12,,12,A,126,OK,2012-10-30T08:01,2012-11-12,1668297600.0,25.0,25.0,YEARS,349.0,Years,YEARS,F,F,CAUCASIAN,CA,,HISPANIC OR LATINO,HIS,ABC,A / B /C,HISPANIC OR LATINO,100.0,CAUCASIAN,10.0,F,2.0,ABC,A / B /C,,,25/F/Ca,MOON/1001015,1.0,1.0,Y,Y,N,1.0,1.0,5.397605346934028e-79,19296.0,19296.0,C,C,3.0,3.0,1667203260.0,1667980860.0,28860.0,19305.0,19296.0,A / B /C,A / B /C,19309.0,PCCONC,PK concentration (ng/mL),DRUG ANAL 1 Plasma,PC_ANAL 1_NG/ML,11.0,1667980860.0,19305.0,28860.0,1668024060.0,19305.0,72060.0,1.010000000000001,      1.01,15.27,GENERAL,5.397605346934028e-79,General,ANALYTE,1.0,Analyte,12 HOURS POST DOSE,DOSE,,,,1.0,1.0,C,C,PERIOD 3,3.0,3.0,3.0,C,1.0
76,Study001,Study001_1001015,1001015,1001,1,77.0,126,ng/mL,3700,3700.0,ng/mL,PLASMA,27.0,Plasma,PLASMA,,205.0,TREATMENT PERIOD 2,25.0,Treatment period 2,TRTPR2,2012-11-08T20:01:00,10.0,12 HOURS POST DOSE,11.0,PT12H,DOSE,2012-11-08T08:01,1667980860.0,12,,12,A,126,OK,2012-10-30T08:01,2012-11-12,1668297600.0,25.0,25.0,YEARS,349.0,Years,YEARS,F,F,CAUCASIAN,CA,,HISPANIC OR LATINO,HIS,ABC,A / B /C,HISPANIC OR LATINO,100.0,CAUCASIAN,10.0,F,2.0,ABC,A / B /C,,,25/F/Ca,MOON/1001015,1.0,1.0,Y,Y,N,1.0,1.0,5.397605346934028e-79,19296.0,19296.0,C,C,3.0,3.0,1667203260.0,1667980860.0,28860.0,19305.0,19296.0,A / B /C,A / B /C,19309.0,PCCONC,PK concentration (ng/mL),DRUG ANAL 2 Plasma,PC_ANAL 2_NG/ML,11.0,1667980860.0,19305.0,28860.0,1668024060.0,19305.0,72060.0,3700.0,3700,16.270000000000007,GENERAL,5.397605346934028e-79,General,ANALYTE,1.0,Analyte,12 HOURS POST DOSE,DOSE,,,,1.0,1.0,C,C,PERIOD 3,3.0,3.0,3.0,C,1.0
77,Study001,Study001_1001015,1001015,1001,1,78.0,126,ng/mL,545,545.0,ng/mL,PLASMA,27.0,Plasma,PLASMA,,205.0,TREATMENT PERIOD 2,25.0,Treatment period 2,TRTPR2,2012-11-08T20:01:00,10.0,12 HOURS POST DOSE,11.0,PT12H,DOSE,2012-11-08T08:01,1667980860.0,12,,12,A,126,OK,2012-10-30T08:01,2012-11-12,1668297600.0,25.0,25.0,YEARS,349.0,Years,YEARS,F,F,CAUCASIAN,CA,,HISPANIC OR LATINO,HIS,ABC,A / B /C,HISPANIC OR LATINO,100.0,CAUCASIAN,10.0,F,2.0,ABC,A / B /C,,,25/F/Ca,MOON/1001015,1.0,1.0,Y,Y,N,1.0,1.0,5.397605346934028e-79,19296.0,19296.0,C,C,3.0,3.0,1667203260.0,1667980860.0,28860.0,19305.0,19296.0,A / B /C,A / B /C,19309.0,PCCONC,PK concentration (ng/mL),DRUG ANAL 3 Plasma,PC_ANAL 3_NG/ML,11.0,1667980860.0,19305.0,28860.0,1668024060.0,19305.0,72060.0,545.0,545,17.270000000000007,GENERAL,5.397605346934028e-79,General,ANALYTE,1.0,Analyte,12 HOURS POST DOSE,DOSE,,,,1.0,1.0,C,C,PERIOD 3,3.0,3.0,3.0,C,1.0
78,Study001,Study001_1001015,1001015,1001,1,79.0,127,ng/mL,0,5.397605346934028e-79,ng/mL,PLASMA,27.0,Plasma,PLASMA,1.0,206.0,TREATMENT PERIOD 2,25.0,Treatment period 2,TRTPR2,2012-11-09T08:01:00,11.0,24 HOURS POST DOSE,12.0,PT24H,DOSE,2012-11-08T08:01,1667980860.0,24,,24,A,127,OK,2012-10-30T08:01,2012-11-12,1668297600.0,25.0,25.0,YEARS,349.0,Years,YEARS,F,F,CAUCASIAN,CA,,HISPANIC OR LATINO,HIS,ABC,A / B /C,HISPANIC OR LATINO,100.0,CAUCASIAN,10.0,F,2.0,ABC,A / B /C,,,25/F/Ca,MOON/1001015,1.0,1.0,Y,Y,N,1.0,1.0,5.397605346934028e-79,19296.0,19296.0,C,C,3.0,3.0,1667203260.0,1667980860.0,28860.0,19305.0,19296.0,A / B /C,A / B /C,19309.0,PCCONC,PK concentration (ng/mL),DRUG ANAL 1 Plasma,PC_ANAL 1_NG/ML,12.0,1667980860.0,19305.0,28860.0,1668067260.0,19306.0,28860.0,5.397605346934028e-79,0,15.27,GENERAL,5.397605346934028e-79,General,ANALYTE,1.0,Analyte,24 HOURS POST DOSE,DOSE,,,,1.0,2.0,C,C,PERIOD 3,3.0,3.0,3.0,C,2.0
79,Study001,Study001_1001015,1001015,1001,1,80.0,127,ng/mL,1060,1060.0,ng/mL,PLASMA,27.0,Plasma,PLASMA,,206.0,TREATMENT PERIOD 2,25.0,Treatment period 2,TRTPR2,2012-11-09T08:01:00,11.0,24 HOURS POST DOSE,12.0,PT24H,DOSE,2012-11-08T08:01,1667980860.0,24,,24,A,127,OK,2012-10-30T08:01,2012-11-12,1668297600.0,25.0,25.0,YEARS,349.0,Years,YEARS,F,F,CAUCASIAN,CA,,HISPANIC OR LATINO,HIS,ABC,A / B /C,HISPANIC OR LATINO,100.0,CAUCASIAN,10.0,F,2.0,ABC,A / B /C,,,25/F/Ca,MOON/1001015,1.0,1.0,Y,Y,N,1.0,1.0,5.397605346934028e-79,19296.0,19296.0,C,C,3.0,3.0,1667203260.0,1667980860.0,28860.0,19305.0,19296.0,A / B /C,A / B /C,19309.0,PCCONC,PK concentration (ng/mL),DRUG ANAL 2 Plasma,PC_ANAL 2_NG/ML,12.0,1667980860.0,19305.0,28860.0,1668067260.0,19306.0,28860.0,1060.0,1060,16.270000000000007,GENERAL,5.397605346934028e-79,General,ANALYTE,1.0,Analyte,24 HOURS POST DOSE,DOSE,,,,1.0,2.0,C,C,PERIOD 3,3.0,3.0,3.0,C,2.0
80,Study001,Study001_1001015,1001015,1001,1,81.0,127,ng/mL,159,159.0,ng/mL,PLASMA,27.0,Plasma,PLASMA,,206.0,TREATMENT PERIOD 2,25.0,Treatment period 2,TRTPR2,2012-11-09T08:01:00,11.0,24 HOURS POST DOSE,12.0,PT24H,DOSE,2012-11-08T08:01,1667980860.0,24,,24,A,127,OK,2012-10-30T08:01,2012-11-12,1668297600.0,25.0,25.0,YEARS,349.0,Years,YEARS,F,F,CAUCASIAN,CA,,HISPANIC OR LATINO,HIS,ABC,A / B /C,HISPANIC OR LATINO,100.0,CAUCASIAN,10.0,F,2.0,ABC,A / B /C,,,25/F/Ca,MOON/1001015,1.0,1.0,Y,Y,N,1.0,1.0,5.397605346934028e-79,19296.0,19296.0,C,C,3.0,3.0,1667203260.0,1667980860.0,28860.0,19305.0,19296.0,A / B /C,A / B /C,19309.0,PCCONC,PK concentration (ng/mL),DRUG ANAL 3 Plasma,PC_ANAL 3_NG/ML,12.0,1667980860.0,19305.0,28860.0,1668067260.0,19306.0,28860.0,159.0,159,17.270000000000007,GENERAL,5.397605346934028e-79,General,ANALYTE,1.0,Analyte,24 HOURS POST DOSE,DOSE,,,,1.0,2.0,C,C,PERIOD 3,3.0,3.0,3.0,C,2.0
81,Study001,Study001_1001015,1001015,1001,1,82.0,128,ng/mL,0,5.397605346934028e-79,ng/mL,PLASMA,27.0,Plasma,PLASMA,1.0,207.0,TREATMENT PERIOD 2,25.0,Treatment period 2,TRTPR2,2012-11-10T08:01:00,12.0,48 HOURS POST DOSE,13.0,PT48H,DOSE,2012-11-08T08:01,1667980860.0,48,,48,A,128,OK,2012-10-30T08:01,2012-11-12,1668297600.0,25.0,25.0,YEARS,349.0,Years,YEARS,F,F,CAUCASIAN,CA,,HISPANIC OR LATINO,HIS,ABC,A / B /C,HISPANIC OR LATINO,100.0,CAUCASIAN,10.0,F,2.0,ABC,A / B /C,,,25/F/Ca,MOON/1001015,1.0,1.0,Y,Y,N,1.0,1.0,5.397605346934028e-79,19296.0,19296.0,C,C,3.0,3.0,1667203260.0,1667980860.0,28860.0,19305.0,19296.0,A / B /C,A / B /C,19309.0,PCCONC,PK concentration (ng/mL),DRUG ANAL 1 Plasma,PC_ANAL 1_NG/ML,13.0,1667980860.0,19305.0,28860.0,1668153660.0,19307.0,28860.0,5.397605346934028e-79,0,15.27,GENERAL,5.397605346934028e-79,General,ANALYTE,1.0,Analyte,48 HOURS POST DOSE,DOSE,,,,1.0,3.0,C,C,PERIOD 3,3.0,3.0,3.0,C,3.0
82,Study001,Study001_1001015,1001015,1001,1,83.0,128,ng/mL,118,118.0,ng/mL,PLASMA,27.0,Plasma,PLASMA,,207.0,TREATMENT PERIOD 2,25.0,Treatment period 2,TRTPR2,2012-11-10T08:01:00,12.0,48 HOURS POST DOSE,13.0,PT48H,DOSE,2012-11-08T08:01,1667980860.0,48,,48,A,128,OK,2012-10-30T08:01,2012-11-12,1668297600.0,25.0,25.0,YEARS,349.0,Years,YEARS,F,F,CAUCASIAN,CA,,HISPANIC OR LATINO,HIS,ABC,A / B /C,HISPANIC OR LATINO,100.0,CAUCASIAN,10.0,F,2.0,ABC,A / B /C,,,25/F/Ca,MOON/1001015,1.0,1.0,Y,Y,N,1.0,1.0,5.397605346934028e-79,19296.0,19296.0,C,C,3.0,3.0,1667203260.0,1667980860.0,28860.0,19305.0,19296.0,A / B /C,A / B /C,19309.0,PCCONC,PK concentration (ng/mL),DRUG ANAL 2 Plasma,PC_ANAL 2_NG/ML,13.0,1667980860.0,19305.0,28860.0,1668153660.0,19307.0,28860.0,118.0,118,16.270000000000007,GENERAL,5.397605346934028e-79,General,ANALYTE,1.0,Analyte,48 HOURS POST DOSE,DOSE,,,,1.0,3.0,C,C,PERIOD 3,3.0,3.0,3.0,C,3.0
83,Study001,Study001_1001015,1001015,1001,1,84.0,128,ng/mL,      15.6,15.6,ng/mL,PLASMA,27.0,Plasma,PLASMA,,207.0,TREATMENT PERIOD 2,25.0,Treatment period 2,TRTPR2,2012-11-10T08:01:00,12.0,48 HOURS POST DOSE,13.0,PT48H,DOSE,2012-11-08T08:01,1667980860.0,48,,48,A,128,OK,2012-10-30T08:01,2012-11-12,1668297600.0,25.0,25.0,YEARS,349.0,Years,YEARS,F,F,CAUCASIAN,CA,,HISPANIC OR LATINO,HIS,ABC,A / B /C,HISPANIC OR LATINO,100.0,CAUCASIAN,10.0,F,2.0,ABC,A / B /C,,,25/F/Ca,MOON/1001015,1.0,1.0,Y,Y,N,1.0,1.0,5.397605346934028e-79,19296.0,19296.0,C,C,3.0,3.0,1667203260.0,1667980860.0,28860.0,19305.0,19296.0,A / B /C,A / B /C,19309.0,PCCONC,PK concentration (ng/mL),DRUG ANAL 3 Plasma,PC_ANAL 3_NG/ML,13.0,1667980860.0,19305.0,28860.0,1668153660.0,19307.0,28860.0,15.6,      15.6,17.270000000000007,GENERAL,5.397605346934028e-79,General,ANALYTE,1.0,Analyte,48 HOURS POST DOSE,DOSE,,,,1.0,3.0,C,C,PERIOD 3,3.0,3.0,3.0,C,3.0
84,Study001,Study001_1001015,1001015,1001,1,85.0,129,ng/mL,0,5.397605346934028e-79,ng/mL,PLASMA,27.0,Plasma,PLASMA,1.0,208.0,TREATMENT PERIOD 2,25.0,Treatment period 2,TRTPR2,2012-11-11T08:01:00,13.0,72 HOURS POST DOSE,14.0,PT72H,DOSE,2012-11-08T08:01,1667980860.0,72,,72,A,129,OK,2012-10-30T08:01,2012-11-12,1668297600.0,25.0,25.0,YEARS,349.0,Years,YEARS,F,F,CAUCASIAN,CA,,HISPANIC OR LATINO,HIS,ABC,A / B /C,HISPANIC OR LATINO,100.0,CAUCASIAN,10.0,F,2.0,ABC,A / B /C,,,25/F/Ca,MOON/1001015,1.0,1.0,Y,Y,N,1.0,1.0,5.397605346934028e-79,19296.0,19296.0,C,C,3.0,3.0,1667203260.0,1667980860.0,28860.0,19305.0,19296.0,A / B /C,A / B /C,19309.0,PCCONC,PK concentration (ng/mL),DRUG ANAL 1 Plasma,PC_ANAL 1_NG/ML,14.0,1667980860.0,19305.0,28860.0,1668240060.0,19308.0,28860.0,5.397605346934028e-79,0,15.27,GENERAL,5.397605346934028e-79,General,ANALYTE,1.0,Analyte,72 HOURS POST DOSE,DOSE,,,,1.0,4.0,C,C,PERIOD 3,3.0,3.0,3.0,C,4.0
85,Study001,Study001_1001015,1001015,1001,1,86.0,129,ng/mL,0,5.397605346934028e-79,ng/mL,PLASMA,27.0,Plasma,PLASMA,20.0,208.0,TREATMENT PERIOD 2,25.0,Treatment period 2,TRTPR2,2012-11-11T08:01:00,13.0,72 HOURS POST DOSE,14.0,PT72H,DOSE,2012-11-08T08:01,1667980860.0,72,,72,A,129,OK,2012-10-30T08:01,2012-11-12,1668297600.0,25.0,25.0,YEARS,349.0,Years,YEARS,F,F,CAUCASIAN,CA,,HISPANIC OR LATINO,HIS,ABC,A / B /C,HISPANIC OR LATINO,100.0,CAUCASIAN,10.0,F,2.0,ABC,A / B /C,,,25/F/Ca,MOON/1001015,1.0,1.0,Y,Y,N,1.0,1.0,5.397605346934028e-79,19296.0,19296.0,C,C,3.0,3.0,1667203260.0,1667980860.0,28860.0,19305.0,19296.0,A / B /C,A / B /C,19309.0,PCCONC,PK concentration (ng/mL),DRUG ANAL 2 Plasma,PC_ANAL 2_NG/ML,14.0,1667980860.0,19305.0,28860.0,1668240060.0,19308.0,28860.0,5.397605346934028e-79,0,16.270000000000007,GENERAL,5.397605346934028e-79,General,ANALYTE,1.0,Analyte,72 HOURS POST DOSE,DOSE,,,,1.0,4.0,C,C,PERIOD 3,3.0,3.0,3.0,C,4.0
86,Study001,Study001_1001015,1001015,1001,1,87.0,129,ng/mL,0,5.397605346934028e-79,ng/mL,PLASMA,27.0,Plasma,PLASMA,10.0,208.0,TREATMENT PERIOD 2,25.0,Treatment period 2,TRTPR2,2012-11-11T08:01:00,13.0,72 HOURS POST DOSE,14.0,PT72H,DOSE,2012-11-08T08:01,1667980860.0,72,,72,A,129,OK,2012-10-30T08:01,2012-11-12,1668297600.0,25.0,25.0,YEARS,349.0,Years,YEARS,F,F,CAUCASIAN,CA,,HISPANIC OR LATINO,HIS,ABC,A / B /C,HISPANIC OR LATINO,100.0,CAUCASIAN,10.0,F,2.0,ABC,A / B /C,,,25/F/Ca,MOON/1001015,1.0,1.0,Y,Y,N,1.0,1.0,5.397605346934028e-79,19296.0,19296.0,C,C,3.0,3.0,1667203260.0,1667980860.0,28860.0,19305.0,19296.0,A / B /C,A / B /C,19309.0,PCCONC,PK concentration (ng/mL),DRUG ANAL 3 Plasma,PC_ANAL 3_NG/ML,14.0,1667980860.0,19305.0,28860.0,1668240060.0,19308.0,28860.0,5.397605346934028e-79,0,17.270000000000007,GENERAL,5.397605346934028e-79,General,ANALYTE,1.0,Analyte,72 HOURS POST DOSE,DOSE,,,,1.0,4.0,C,C,PERIOD 3,3.0,3.0,3.0,C,4.0
87,Study001,Study001_1001015,1001015,1001,1,88.0,130,ng/mL,0,5.397605346934028e-79,ng/mL,PLASMA,27.0,Plasma,PLASMA,1.0,299.0,TREATMENT PERIOD 2,25.0,Treatment period 2,TRTPR2,2012-11-12T08:01:00,14.0,96 HOURS POST DOSE,15.0,PT96H,DOSE,2012-11-08T08:01,1667980860.0,96,,96,A,130,OK,2012-10-30T08:01,2012-11-12,1668297600.0,25.0,25.0,YEARS,349.0,Years,YEARS,F,F,CAUCASIAN,CA,,HISPANIC OR LATINO,HIS,ABC,A / B /C,HISPANIC OR LATINO,100.0,CAUCASIAN,10.0,F,2.0,ABC,A / B /C,,,25/F/Ca,MOON/1001015,1.0,1.0,Y,Y,N,1.0,1.0,5.397605346934028e-79,19296.0,19296.0,C,C,3.0,3.0,1667203260.0,1667980860.0,28860.0,19305.0,19296.0,A / B /C,A / B /C,19309.0,PCCONC,PK concentration (ng/mL),DRUG ANAL 1 Plasma,PC_ANAL 1_NG/ML,15.0,1667980860.0,19305.0,28860.0,1668326460.0,19309.0,28860.0,5.397605346934028e-79,0,15.27,GENERAL,5.397605346934028e-79,General,ANALYTE,1.0,Analyte,96 HOURS POST DOSE,DOSE,,,,1.0,5.0,C,C,PERIOD 3,3.0,3.0,3.0,C,5.0
88,Study001,Study001_1001015,1001015,1001,1,89.0,130,ng/mL,0,5.397605346934028e-79,ng/mL,PLASMA,27.0,Plasma,PLASMA,20.0,299.0,TREATMENT PERIOD 2,25.0,Treatment period 2,TRTPR2,2012-11-12T08:01:00,14.0,96 HOURS POST DOSE,15.0,PT96H,DOSE,2012-11-08T08:01,1667980860.0,96,,96,A,130,OK,2012-10-30T08:01,2012-11-12,1668297600.0,25.0,25.0,YEARS,349.0,Years,YEARS,F,F,CAUCASIAN,CA,,HISPANIC OR LATINO,HIS,ABC,A / B /C,HISPANIC OR LATINO,100.0,CAUCASIAN,10.0,F,2.0,ABC,A / B /C,,,25/F/Ca,MOON/1001015,1.0,1.0,Y,Y,N,1.0,1.0,5.397605346934028e-79,19296.0,19296.0,C,C,3.0,3.0,1667203260.0,1667980860.0,28860.0,19305.0,19296.0,A / B /C,A / B /C,19309.0,PCCONC,PK concentration (ng/mL),DRUG ANAL 2 Plasma,PC_ANAL 2_NG/ML,15.0,1667980860.0,19305.0,28860.0,1668326460.0,19309.0,28860.0,5.397605346934028e-79,0,16.270000000000007,GENERAL,5.397605346934028e-79,General,ANALYTE,1.0,Analyte,96 HOURS POST DOSE,DOSE,,,,1.0,5.0,C,C,PERIOD 3,3.0,3.0,3.0,C,5.0
89,Study001,Study001_1001015,1001015,1001,1,90.0,130,ng/mL,0,5.397605346934028e-79,ng/mL,PLASMA,27.0,Plasma,PLASMA,10.0,299.0,TREATMENT PERIOD 2,25.0,Treatment period 2,TRTPR2,2012-11-12T08:01:00,14.0,96 HOURS POST DOSE,15.0,PT96H,DOSE,2012-11-08T08:01,1667980860.0,96,,96,A,130,OK,2012-10-30T08:01,2012-11-12,1668297600.0,25.0,25.0,YEARS,349.0,Years,YEARS,F,F,CAUCASIAN,CA,,HISPANIC OR LATINO,HIS,ABC,A / B /C,HISPANIC OR LATINO,100.0,CAUCASIAN,10.0,F,2.0,ABC,A / B /C,,,25/F/Ca,MOON/1001015,1.0,1.0,Y,Y,N,1.0,1.0,5.397605346934028e-79,19296.0,19296.0,C,C,3.0,3.0,1667203260.0,1667980860.0,28860.0,19305.0,19296.0,A / B /C,A / B /C,19309.0,PCCONC,PK concentration (ng/mL),DRUG ANAL 3 Plasma,PC_ANAL 3_NG/ML,15.0,1667980860.0,19305.0,28860.0,1668326460.0,19309.0,28860.0,5.397605346934028e-79,0,17.270000000000007,GENERAL,5.397605346934028e-79,General,ANALYTE,1.0,Analyte,96 HOURS POST DOSE,DOSE,,,,1.0,5.0,C,C,PERIOD 3,3.0,3.0,3.0,C,5.0
90,Study001,Study001_1001023,1001023,1001,7,91.0,101,ng/mL,0,5.397605346934028e-79,ng/mL,PLASMA,27.0,Plasma,PLASMA,1.0,101.0,TREATMENT PERIOD 1,24.0,Treatment period 1,TRTPR1,2012-10-30T07:50:00,1.0,0 HOURS PRE DOSE,1.0,-PT0H,DOSE,2012-10-30T08:00,1667203200.0,0,,0,A,101,OK,2012-10-30T08:00,2012-11-12,1668297600.0,25.0,25.0,YEARS,349.0,Years,YEARS,F,F,CAUCASIAN,CA,,HISPANIC OR LATINO,HIS,ABC,A / B /C,HISPANIC OR LATINO,100.0,CAUCASIAN,10.0,F,2.0,ABC,A / B /C,,,25/F/Ca,MOON/1001023,1.0,1.0,Y,Y,N,1.0,1.0,5.397605346934028e-79,19296.0,19296.0,C,C,3.0,3.0,1667203200.0,1667980800.0,28800.0,19305.0,19296.0,A / B /C,A / B /C,19309.0,PCCONC,PK concentration (ng/mL),DRUG ANAL 1 Plasma,PC_ANAL 1_NG/ML,1.0,1667203200.0,19296.0,28800.0,1667202600.0,19296.0,28200.0,5.397605346934028e-79,0,15.27,GENERAL,5.397605346934028e-79,General,ANALYTE,1.0,Analyte,0 HOURS PRE DOSE,DOSE,,,,1.0,1.0,A,A,PERIOD 1,1.0,1.0,1.0,A,1.0
91,Study001,Study001_1001023,1001023,1001,7,92.0,101,ng/mL,0,5.397605346934028e-79,ng/mL,PLASMA,27.0,Plasma,PLASMA,20.0,101.0,TREATMENT PERIOD 1,24.0,Treatment period 1,TRTPR1,2012-10-30T07:50:00,1.0,0 HOURS PRE DOSE,1.0,-PT0H,DOSE,2012-10-30T08:00,1667203200.0,0,,0,A,101,OK,2012-10-30T08:00,2012-11-12,1668297600.0,25.0,25.0,YEARS,349.0,Years,YEARS,F,F,CAUCASIAN,CA,,HISPANIC OR LATINO,HIS,ABC,A / B /C,HISPANIC OR LATINO,100.0,CAUCASIAN,10.0,F,2.0,ABC,A / B /C,,,25/F/Ca,MOON/1001023,1.0,1.0,Y,Y,N,1.0,1.0,5.397605346934028e-79,19296.0,19296.0,C,C,3.0,3.0,1667203200.0,1667980800.0,28800.0,19305.0,19296.0,A / B /C,A / B /C,19309.0,PCCONC,PK concentration (ng/mL),DRUG ANAL 2 Plasma,PC_ANAL 2_NG/ML,1.0,1667203200.0,19296.0,28800.0,1667202600.0,19296.0,28200.0,5.397605346934028e-79,0,16.270000000000007,GENERAL,5.397605346934028e-79,General,ANALYTE,1.0,Analyte,0 HOURS PRE DOSE,DOSE,,,,1.0,1.0,A,A,PERIOD 1,1.0,1.0,1.0,A,1.0
92,Study001,Study001_1001023,1001023,1001,7,93.0,101,ng/mL,0,5.397605346934028e-79,ng/mL,PLASMA,27.0,Plasma,PLASMA,10.0,101.0,TREATMENT PERIOD 1,24.0,Treatment period 1,TRTPR1,2012-10-30T07:50:00,1.0,0 HOURS PRE DOSE,1.0,-PT0H,DOSE,2012-10-30T08:00,1667203200.0,0,,0,A,101,OK,2012-10-30T08:00,2012-11-12,1668297600.0,25.0,25.0,YEARS,349.0,Years,YEARS,F,F,CAUCASIAN,CA,,HISPANIC OR LATINO,HIS,ABC,A / B /C,HISPANIC OR LATINO,100.0,CAUCASIAN,10.0,F,2.0,ABC,A / B /C,,,25/F/Ca,MOON/1001023,1.0,1.0,Y,Y,N,1.0,1.0,5.397605346934028e-79,19296.0,19296.0,C,C,3.0,3.0,1667203200.0,1667980800.0,28800.0,19305.0,19296.0,A / B /C,A / B /C,19309.0,PCCONC,PK concentration (ng/mL),DRUG ANAL 3 Plasma,PC_ANAL 3_NG/ML,1.0,1667203200.0,19296.0,28800.0,1667202600.0,19296.0,28200.0,5.397605346934028e-79,0,17.270000000000007,GENERAL,5.397605346934028e-79,General,ANALYTE,1.0,Analyte,0 HOURS PRE DOSE,DOSE,,,,1.0,1.0,A,A,PERIOD 1,1.0,1.0,1.0,A,1.0
93,Study001,Study001_1001023,1001023,1001,7,94.0,102,ng/mL,155,155.0,ng/mL,PLASMA,27.0,Plasma,PLASMA,,101.0,TREATMENT PERIOD 1,24.0,Treatment period 1,TRTPR1,2012-10-30T08:15:00,1.0,0.25 HOURS POST DOSE,2.0,PT0.25H,DOSE,2012-10-30T08:00,1667203200.0,0.25,,0.25,A,102,OK,2012-10-30T08:00,2012-11-12,1668297600.0,25.0,25.0,YEARS,349.0,Years,YEARS,F,F,CAUCASIAN,CA,,HISPANIC OR LATINO,HIS,ABC,A / B /C,HISPANIC OR LATINO,100.0,CAUCASIAN,10.0,F,2.0,ABC,A / B /C,,,25/F/Ca,MOON/1001023,1.0,1.0,Y,Y,N,1.0,1.0,5.397605346934028e-79,19296.0,19296.0,C,C,3.0,3.0,1667203200.0,1667980800.0,28800.0,19305.0,19296.0,A / B /C,A / B /C,19309.0,PCCONC,PK concentration (ng/mL),DRUG ANAL 1 Plasma,PC_ANAL 1_NG/ML,2.0,1667203200.0,19296.0,28800.0,1667204100.0,19296.0,29700.0,155.0,155,15.27,GENERAL,5.397605346934028e-79,General,ANALYTE,1.0,Analyte,0.25 HOURS POST DOSE,DOSE,,,,1.0,1.0,A,A,PERIOD 1,1.0,1.0,1.0,A,1.0
94,Study001,Study001_1001023,1001023,1001,7,95.0,102,ng/mL,0,5.397605346934028e-79,ng/mL,PLASMA,27.0,Plasma,PLASMA,20.0,101.0,TREATMENT PERIOD 1,24.0,Treatment period 1,TRTPR1,2012-10-30T08:15:00,1.0,0.25 HOURS POST DOSE,2.0,PT0.25H,DOSE,2012-10-30T08:00,1667203200.0,0.25,,0.25,A,102,OK,2012-10-30T08:00,2012-11-12,1668297600.0,25.0,25.0,YEARS,349.0,Years,YEARS,F,F,CAUCASIAN,CA,,HISPANIC OR LATINO,HIS,ABC,A / B /C,HISPANIC OR LATINO,100.0,CAUCASIAN,10.0,F,2.0,ABC,A / B /C,,,25/F/Ca,MOON/1001023,1.0,1.0,Y,Y,N,1.0,1.0,5.397605346934028e-79,19296.0,19296.0,C,C,3.0,3.0,1667203200.0,1667980800.0,28800.0,19305.0,19296.0,A / B /C,A / B /C,19309.0,PCCONC,PK concentration (ng/mL),DRUG ANAL 2 Plasma,PC_ANAL 2_NG/ML,2.0,1667203200.0,19296.0,28800.0,1667204100.0,19296.0,29700.0,5.397605346934028e-79,0,16.270000000000007,GENERAL,5.397605346934028e-79,General,ANALYTE,1.0,Analyte,0.25 HOURS POST DOSE,DOSE,,,,1.0,1.0,A,A,PERIOD 1,1.0,1.0,1.0,A,1.0
95,Study001,Study001_1001023,1001023,1001,7,96.0,102,ng/mL,342,342.0,ng/mL,PLASMA,27.0,Plasma,PLASMA,,101.0,TREATMENT PERIOD 1,24.0,Treatment period 1,TRTPR1,2012-10-30T08:15:00,1.0,0.25 HOURS POST DOSE,2.0,PT0.25H,DOSE,2012-10-30T08:00,1667203200.0,0.25,,0.25,A,102,OK,2012-10-30T08:00,2012-11-12,1668297600.0,25.0,25.0,YEARS,349.0,Years,YEARS,F,F,CAUCASIAN,CA,,HISPANIC OR LATINO,HIS,ABC,A / B /C,HISPANIC OR LATINO,100.0,CAUCASIAN,10.0,F,2.0,ABC,A / B /C,,,25/F/Ca,MOON/1001023,1.0,1.0,Y,Y,N,1.0,1.0,5.397605346934028e-79,19296.0,19296.0,C,C,3.0,3.0,1667203200.0,1667980800.0,28800.0,19305.0,19296.0,A / B /C,A / B /C,19309.0,PCCONC,PK concentration (ng/mL),DRUG ANAL 3 Plasma,PC_ANAL 3_NG/ML,2.0,1667203200.0,19296.0,28800.0,1667204100.0,19296.0,29700.0,342.0,342,17.270000000000007,GENERAL,5.397605346934028e-79,General,ANALYTE,1.0,Analyte,0.25 HOURS POST DOSE,DOSE,,,,1.0,1.0,A,A,PERIOD 1,1.0,1.0,1.0,A,1.0
96,Study001,Study001_1001023,1001023,1001,7,97.0,103,ng/mL,427,427.0,ng/mL,PLASMA,27.0,Plasma,PLASMA,,101.0,TREATMENT PERIOD 1,24.0,Treatment period 1,TRTPR1,2012-10-30T08:30:00,1.0,0.5 HOURS POST DOSE,3.0,PT0.5H,DOSE,2012-10-30T08:00,1667203200.0,0.5,,0.5,A,103,OK,2012-10-30T08:00,2012-11-12,1668297600.0,25.0,25.0,YEARS,349.0,Years,YEARS,F,F,CAUCASIAN,CA,,HISPANIC OR LATINO,HIS,ABC,A / B /C,HISPANIC OR LATINO,100.0,CAUCASIAN,10.0,F,2.0,ABC,A / B /C,,,25/F/Ca,MOON/1001023,1.0,1.0,Y,Y,N,1.0,1.0,5.397605346934028e-79,19296.0,19296.0,C,C,3.0,3.0,1667203200.0,1667980800.0,28800.0,19305.0,19296.0,A / B /C,A / B /C,19309.0,PCCONC,PK concentration (ng/mL),DRUG ANAL 1 Plasma,PC_ANAL 1_NG/ML,3.0,1667203200.0,19296.0,28800.0,1667205000.0,19296.0,30600.0,427.0,427,15.27,GENERAL,5.397605346934028e-79,General,ANALYTE,1.0,Analyte,0.5 HOURS POST DOSE,DOSE,,,,1.0,1.0,A,A,PERIOD 1,1.0,1.0,1.0,A,1.0
97,Study001,Study001_1001023,1001023,1001,7,98.0,103,ng/mL,368,368.0,ng/mL,PLASMA,27.0,Plasma,PLASMA,,101.0,TREATMENT PERIOD 1,24.0,Treatment period 1,TRTPR1,2012-10-30T08:30:00,1.0,0.5 HOURS POST DOSE,3.0,PT0.5H,DOSE,2012-10-30T08:00,1667203200.0,0.5,,0.5,A,103,OK,2012-10-30T08:00,2012-11-12,1668297600.0,25.0,25.0,YEARS,349.0,Years,YEARS,F,F,CAUCASIAN,CA,,HISPANIC OR LATINO,HIS,ABC,A / B /C,HISPANIC OR LATINO,100.0,CAUCASIAN,10.0,F,2.0,ABC,A / B /C,,,25/F/Ca,MOON/1001023,1.0,1.0,Y,Y,N,1.0,1.0,5.397605346934028e-79,19296.0,19296.0,C,C,3.0,3.0,1667203200.0,1667980800.0,28800.0,19305.0,19296.0,A / B /C,A / B /C,19309.0,PCCONC,PK concentration (ng/mL),DRUG ANAL 2 Plasma,PC_ANAL 2_NG/ML,3.0,1667203200.0,19296.0,28800.0,1667205000.0,19296.0,30600.0,368.0,368,16.270000000000007,GENERAL,5.397605346934028e-79,General,ANALYTE,1.0,Analyte,0.5 HOURS POST DOSE,DOSE,,,,1.0,1.0,A,A,PERIOD 1,1.0,1.0,1.0,A,1.0
98,Study001,Study001_1001023,1001023,1001,7,99.0,103,ng/mL,1710,1710.0,ng/mL,PLASMA,27.0,Plasma,PLASMA,,101.0,TREATMENT PERIOD 1,24.0,Treatment period 1,TRTPR1,2012-10-30T08:30:00,1.0,0.5 HOURS POST DOSE,3.0,PT0.5H,DOSE,2012-10-30T08:00,1667203200.0,0.5,,0.5,A,103,OK,2012-10-30T08:00,2012-11-12,1668297600.0,25.0,25.0,YEARS,349.0,Years,YEARS,F,F,CAUCASIAN,CA,,HISPANIC OR LATINO,HIS,ABC,A / B /C,HISPANIC OR LATINO,100.0,CAUCASIAN,10.0,F,2.0,ABC,A / B /C,,,25/F/Ca,MOON/1001023,1.0,1.0,Y,Y,N,1.0,1.0,5.397605346934028e-79,19296.0,19296.0,C,C,3.0,3.0,1667203200.0,1667980800.0,28800.0,19305.0,19296.0,A / B /C,A / B /C,19309.0,PCCONC,PK concentration (ng/mL),DRUG ANAL 3 Plasma,PC_ANAL 3_NG/ML,3.0,1667203200.0,19296.0,28800.0,1667205000.0,19296.0,30600.0,1710.0,1710,17.270000000000007,GENERAL,5.397605346934028e-79,General,ANALYTE,1.0,Analyte,0.5 HOURS POST DOSE,DOSE,,,,1.0,1.0,A,A,PERIOD 1,1.0,1.0,1.0,A,1.0
99,Study001,Study001_1001023,1001023,1001,7,100.0,104,ng/mL,541,541.0,ng/mL,PLASMA,27.0,Plasma,PLASMA,,101.0,TREATMENT PERIOD 1,24.0,Treatment period 1,TRTPR1,2012-10-30T09:00:00,1.0,1 HOURS POST DOSE,4.0,PT1H,DOSE,2012-10-30T08:00,1667203200.0,1,,1,A,104,OK,2012-10-30T08:00,2012-11-12,1668297600.0,25.0,25.0,YEARS,349.0,Years,YEARS,F,F,CAUCASIAN,CA,,HISPANIC OR LATINO,HIS,ABC,A / B /C,HISPANIC OR LATINO,100.0,CAUCASIAN,10.0,F,2.0,ABC,A / B /C,,,25/F/Ca,MOON/1001023,1.0,1.0,Y,Y,N,1.0,1.0,5.397605346934028e-79,19296.0,19296.0,C,C,3.0,3.0,1667203200.0,1667980800.0,28800.0,19305.0,19296.0,A / B /C,A / B /C,19309.0,PCCONC,PK concentration (ng/mL),DRUG ANAL 1 Plasma,PC_ANAL 1_NG/ML,4.0,1667203200.0,19296.0,28800.0,1667206800.0,19296.0,32400.0,541.0,541,15.27,GENERAL,5.397605346934028e-79,General,ANALYTE,1.0,Analyte,1 HOURS POST DOSE,DOSE,,,,1.0,1.0,A,A,PERIOD 1,1.0,1.0,1.0,A,1.0
100,Study001,Study001_1001023,1001023,1001,7,101.0,104,ng/mL,2010,2010.0,ng/mL,PLASMA,27.0,Plasma,PLASMA,,101.0,TREATMENT PERIOD 1,24.0,Treatment period 1,TRTPR1,2012-10-30T09:00:00,1.0,1 HOURS POST DOSE,4.0,PT1H,DOSE,2012-10-30T08:00,1667203200.0,1,,1,A,104,OK,2012-10-30T08:00,2012-11-12,1668297600.0,25.0,25.0,YEARS,349.0,Years,YEARS,F,F,CAUCASIAN,CA,,HISPANIC OR LATINO,HIS,ABC,A / B /C,HISPANIC OR LATINO,100.0,CAUCASIAN,10.0,F,2.0,ABC,A / B /C,,,25/F/Ca,MOON/1001023,1.0,1.0,Y,Y,N,1.0,1.0,5.397605346934028e-79,19296.0,19296.0,C,C,3.0,3.0,1667203200.0,1667980800.0,28800.0,19305.0,19296.0,A / B /C,A / B /C,19309.0,PCCONC,PK concentration (ng/mL),DRUG ANAL 2 Plasma,PC_ANAL 2_NG/ML,4.0,1667203200.0,19296.0,28800.0,1667206800.0,19296.0,32400.0,2010.0,2010,16.270000000000007,GENERAL,5.397605346934028e-79,General,ANALYTE,1.0,Analyte,1 HOURS POST DOSE,DOSE,,,,1.0,1.0,A,A,PERIOD 1,1.0,1.0,1.0,A,1.0
101,Study001,Study001_1001023,1001023,1001,7,102.0,104,ng/mL,2560,2560.0,ng/mL,PLASMA,27.0,Plasma,PLASMA,,101.0,TREATMENT PERIOD 1,24.0,Treatment period 1,TRTPR1,2012-10-30T09:00:00,1.0,1 HOURS POST DOSE,4.0,PT1H,DOSE,2012-10-30T08:00,1667203200.0,1,,1,A,104,OK,2012-10-30T08:00,2012-11-12,1668297600.0,25.0,25.0,YEARS,349.0,Years,YEARS,F,F,CAUCASIAN,CA,,HISPANIC OR LATINO,HIS,ABC,A / B /C,HISPANIC OR LATINO,100.0,CAUCASIAN,10.0,F,2.0,ABC,A / B /C,,,25/F/Ca,MOON/1001023,1.0,1.0,Y,Y,N,1.0,1.0,5.397605346934028e-79,19296.0,19296.0,C,C,3.0,3.0,1667203200.0,1667980800.0,28800.0,19305.0,19296.0,A / B /C,A / B /C,19309.0,PCCONC,PK concentration (ng/mL),DRUG ANAL 3 Plasma,PC_ANAL 3_NG/ML,4.0,1667203200.0,19296.0,28800.0,1667206800.0,19296.0,32400.0,2560.0,2560,17.270000000000007,GENERAL,5.397605346934028e-79,General,ANALYTE,1.0,Analyte,1 HOURS POST DOSE,DOSE,,,,1.0,1.0,A,A,PERIOD 1,1.0,1.0,1.0,A,1.0
102,Study001,Study001_1001023,1001023,1001,7,103.0,105,ng/mL,1110,1110.0,ng/mL,PLASMA,27.0,Plasma,PLASMA,,101.0,TREATMENT PERIOD 1,24.0,Treatment period 1,TRTPR1,2012-10-30T09:30:00,1.0,1.5 HOURS POST DOSE,5.0,PT1.5H,DOSE,2012-10-30T08:00,1667203200.0,1.5,,1.5,A,105,OK,2012-10-30T08:00,2012-11-12,1668297600.0,25.0,25.0,YEARS,349.0,Years,YEARS,F,F,CAUCASIAN,CA,,HISPANIC OR LATINO,HIS,ABC,A / B /C,HISPANIC OR LATINO,100.0,CAUCASIAN,10.0,F,2.0,ABC,A / B /C,,,25/F/Ca,MOON/1001023,1.0,1.0,Y,Y,N,1.0,1.0,5.397605346934028e-79,19296.0,19296.0,C,C,3.0,3.0,1667203200.0,1667980800.0,28800.0,19305.0,19296.0,A / B /C,A / B /C,19309.0,PCCONC,PK concentration (ng/mL),DRUG ANAL 1 Plasma,PC_ANAL 1_NG/ML,5.0,1667203200.0,19296.0,28800.0,1667208600.0,19296.0,34200.0,1110.0,1110,15.27,GENERAL,5.397605346934028e-79,General,ANALYTE,1.0,Analyte,1.5 HOURS POST DOSE,DOSE,,,,1.0,1.0,A,A,PERIOD 1,1.0,1.0,1.0,A,1.0
103,Study001,Study001_1001023,1001023,1001,7,104.0,105,ng/mL,4790,4790.0,ng/mL,PLASMA,27.0,Plasma,PLASMA,,101.0,TREATMENT PERIOD 1,24.0,Treatment period 1,TRTPR1,2012-10-30T09:30:00,1.0,1.5 HOURS POST DOSE,5.0,PT1.5H,DOSE,2012-10-30T08:00,1667203200.0,1.5,,1.5,A,105,OK,2012-10-30T08:00,2012-11-12,1668297600.0,25.0,25.0,YEARS,349.0,Years,YEARS,F,F,CAUCASIAN,CA,,HISPANIC OR LATINO,HIS,ABC,A / B /C,HISPANIC OR LATINO,100.0,CAUCASIAN,10.0,F,2.0,ABC,A / B /C,,,25/F/Ca,MOON/1001023,1.0,1.0,Y,Y,N,1.0,1.0,5.397605346934028e-79,19296.0,19296.0,C,C,3.0,3.0,1667203200.0,1667980800.0,28800.0,19305.0,19296.0,A / B /C,A / B /C,19309.0,PCCONC,PK concentration (ng/mL),DRUG ANAL 2 Plasma,PC_ANAL 2_NG/ML,5.0,1667203200.0,19296.0,28800.0,1667208600.0,19296.0,34200.0,4790.0,4790,16.270000000000007,GENERAL,5.397605346934028e-79,General,ANALYTE,1.0,Analyte,1.5 HOURS POST DOSE,DOSE,,,,1.0,1.0,A,A,PERIOD 1,1.0,1.0,1.0,A,1.0
104,Study001,Study001_1001023,1001023,1001,7,105.0,105,ng/mL,3060,3060.0,ng/mL,PLASMA,27.0,Plasma,PLASMA,,101.0,TREATMENT PERIOD 1,24.0,Treatment period 1,TRTPR1,2012-10-30T09:30:00,1.0,1.5 HOURS POST DOSE,5.0,PT1.5H,DOSE,2012-10-30T08:00,1667203200.0,1.5,,1.5,A,105,OK,2012-10-30T08:00,2012-11-12,1668297600.0,25.0,25.0,YEARS,349.0,Years,YEARS,F,F,CAUCASIAN,CA,,HISPANIC OR LATINO,HIS,ABC,A / B /C,HISPANIC OR LATINO,100.0,CAUCASIAN,10.0,F,2.0,ABC,A / B /C,,,25/F/Ca,MOON/1001023,1.0,1.0,Y,Y,N,1.0,1.0,5.397605346934028e-79,19296.0,19296.0,C,C,3.0,3.0,1667203200.0,1667980800.0,28800.0,19305.0,19296.0,A / B /C,A / B /C,19309.0,PCCONC,PK concentration (ng/mL),DRUG ANAL 3 Plasma,PC_ANAL 3_NG/ML,5.0,1667203200.0,19296.0,28800.0,1667208600.0,19296.0,34200.0,3060.0,3060,17.270000000000007,GENERAL,5.397605346934028e-79,General,ANALYTE,1.0,Analyte,1.5 HOURS POST DOSE,DOSE,,,,1.0,1.0,A,A,PERIOD 1,1.0,1.0,1.0,A,1.0
105,Study001,Study001_1001023,1001023,1001,7,106.0,106,ng/mL,438,438.0,ng/mL,PLASMA,27.0,Plasma,PLASMA,,101.0,TREATMENT PERIOD 1,24.0,Treatment period 1,TRTPR1,2012-10-30T10:00:00,1.0,2 HOURS POST DOSE,6.0,PT2H,DOSE,2012-10-30T08:00,1667203200.0,2,,2,A,106,OK,2012-10-30T08:00,2012-11-12,1668297600.0,25.0,25.0,YEARS,349.0,Years,YEARS,F,F,CAUCASIAN,CA,,HISPANIC OR LATINO,HIS,ABC,A / B /C,HISPANIC OR LATINO,100.0,CAUCASIAN,10.0,F,2.0,ABC,A / B /C,,,25/F/Ca,MOON/1001023,1.0,1.0,Y,Y,N,1.0,1.0,5.397605346934028e-79,19296.0,19296.0,C,C,3.0,3.0,1667203200.0,1667980800.0,28800.0,19305.0,19296.0,A / B /C,A / B /C,19309.0,PCCONC,PK concentration (ng/mL),DRUG ANAL 1 Plasma,PC_ANAL 1_NG/ML,6.0,1667203200.0,19296.0,28800.0,1667210400.0,19296.0,36000.0,438.0,438,15.27,GENERAL,5.397605346934028e-79,General,ANALYTE,1.0,Analyte,2 HOURS POST DOSE,DOSE,,,,1.0,1.0,A,A,PERIOD 1,1.0,1.0,1.0,A,1.0
106,Study001,Study001_1001023,1001023,1001,7,107.0,106,ng/mL,7060,7060.0,ng/mL,PLASMA,27.0,Plasma,PLASMA,,101.0,TREATMENT PERIOD 1,24.0,Treatment period 1,TRTPR1,2012-10-30T10:00:00,1.0,2 HOURS POST DOSE,6.0,PT2H,DOSE,2012-10-30T08:00,1667203200.0,2,,2,A,106,OK,2012-10-30T08:00,2012-11-12,1668297600.0,25.0,25.0,YEARS,349.0,Years,YEARS,F,F,CAUCASIAN,CA,,HISPANIC OR LATINO,HIS,ABC,A / B /C,HISPANIC OR LATINO,100.0,CAUCASIAN,10.0,F,2.0,ABC,A / B /C,,,25/F/Ca,MOON/1001023,1.0,1.0,Y,Y,N,1.0,1.0,5.397605346934028e-79,19296.0,19296.0,C,C,3.0,3.0,1667203200.0,1667980800.0,28800.0,19305.0,19296.0,A / B /C,A / B /C,19309.0,PCCONC,PK concentration (ng/mL),DRUG ANAL 2 Plasma,PC_ANAL 2_NG/ML,6.0,1667203200.0,19296.0,28800.0,1667210400.0,19296.0,36000.0,7060.0,7060,16.270000000000007,GENERAL,5.397605346934028e-79,General,ANALYTE,1.0,Analyte,2 HOURS POST DOSE,DOSE,,,,1.0,1.0,A,A,PERIOD 1,1.0,1.0,1.0,A,1.0
107,Study001,Study001_1001023,1001023,1001,7,108.0,106,ng/mL,2830,2830.0,ng/mL,PLASMA,27.0,Plasma,PLASMA,,101.0,TREATMENT PERIOD 1,24.0,Treatment period 1,TRTPR1,2012-10-30T10:00:00,1.0,2 HOURS POST DOSE,6.0,PT2H,DOSE,2012-10-30T08:00,1667203200.0,2,,2,A,106,OK,2012-10-30T08:00,2012-11-12,1668297600.0,25.0,25.0,YEARS,349.0,Years,YEARS,F,F,CAUCASIAN,CA,,HISPANIC OR LATINO,HIS,ABC,A / B /C,HISPANIC OR LATINO,100.0,CAUCASIAN,10.0,F,2.0,ABC,A / B /C,,,25/F/Ca,MOON/1001023,1.0,1.0,Y,Y,N,1.0,1.0,5.397605346934028e-79,19296.0,19296.0,C,C,3.0,3.0,1667203200.0,1667980800.0,28800.0,19305.0,19296.0,A / B /C,A / B /C,19309.0,PCCONC,PK concentration (ng/mL),DRUG ANAL 3 Plasma,PC_ANAL 3_NG/ML,6.0,1667203200.0,19296.0,28800.0,1667210400.0,19296.0,36000.0,2830.0,2830,17.270000000000007,GENERAL,5.397605346934028e-79,General,ANALYTE,1.0,Analyte,2 HOURS POST DOSE,DOSE,,,,1.0,1.0,A,A,PERIOD 1,1.0,1.0,1.0,A,1.0
108,Study001,Study001_1001023,1001023,1001,7,109.0,107,ng/mL,571,571.0,ng/mL,PLASMA,27.0,Plasma,PLASMA,,101.0,TREATMENT PERIOD 1,24.0,Treatment period 1,TRTPR1,2012-10-30T11:00:00,1.0,3 HOURS POST DOSE,7.0,PT3H,DOSE,2012-10-30T08:00,1667203200.0,3,,3,A,107,OK,2012-10-30T08:00,2012-11-12,1668297600.0,25.0,25.0,YEARS,349.0,Years,YEARS,F,F,CAUCASIAN,CA,,HISPANIC OR LATINO,HIS,ABC,A / B /C,HISPANIC OR LATINO,100.0,CAUCASIAN,10.0,F,2.0,ABC,A / B /C,,,25/F/Ca,MOON/1001023,1.0,1.0,Y,Y,N,1.0,1.0,5.397605346934028e-79,19296.0,19296.0,C,C,3.0,3.0,1667203200.0,1667980800.0,28800.0,19305.0,19296.0,A / B /C,A / B /C,19309.0,PCCONC,PK concentration (ng/mL),DRUG ANAL 1 Plasma,PC_ANAL 1_NG/ML,7.0,1667203200.0,19296.0,28800.0,1667214000.0,19296.0,39600.0,571.0,571,15.27,GENERAL,5.397605346934028e-79,General,ANALYTE,1.0,Analyte,3 HOURS POST DOSE,DOSE,,,,1.0,1.0,A,A,PERIOD 1,1.0,1.0,1.0,A,1.0
109,Study001,Study001_1001023,1001023,1001,7,110.0,107,ng/mL,9060,9060.0,ng/mL,PLASMA,27.0,Plasma,PLASMA,,101.0,TREATMENT PERIOD 1,24.0,Treatment period 1,TRTPR1,2012-10-30T11:00:00,1.0,3 HOURS POST DOSE,7.0,PT3H,DOSE,2012-10-30T08:00,1667203200.0,3,,3,A,107,OK,2012-10-30T08:00,2012-11-12,1668297600.0,25.0,25.0,YEARS,349.0,Years,YEARS,F,F,CAUCASIAN,CA,,HISPANIC OR LATINO,HIS,ABC,A / B /C,HISPANIC OR LATINO,100.0,CAUCASIAN,10.0,F,2.0,ABC,A / B /C,,,25/F/Ca,MOON/1001023,1.0,1.0,Y,Y,N,1.0,1.0,5.397605346934028e-79,19296.0,19296.0,C,C,3.0,3.0,1667203200.0,1667980800.0,28800.0,19305.0,19296.0,A / B /C,A / B /C,19309.0,PCCONC,PK concentration (ng/mL),DRUG ANAL 2 Plasma,PC_ANAL 2_NG/ML,7.0,1667203200.0,19296.0,28800.0,1667214000.0,19296.0,39600.0,9060.0,9060,16.270000000000007,GENERAL,5.397605346934028e-79,General,ANALYTE,1.0,Analyte,3 HOURS POST DOSE,DOSE,,,,1.0,1.0,A,A,PERIOD 1,1.0,1.0,1.0,A,1.0
110,Study001,Study001_1001023,1001023,1001,7,111.0,107,ng/mL,2660,2660.0,ng/mL,PLASMA,27.0,Plasma,PLASMA,,101.0,TREATMENT PERIOD 1,24.0,Treatment period 1,TRTPR1,2012-10-30T11:00:00,1.0,3 HOURS POST DOSE,7.0,PT3H,DOSE,2012-10-30T08:00,1667203200.0,3,,3,A,107,OK,2012-10-30T08:00,2012-11-12,1668297600.0,25.0,25.0,YEARS,349.0,Years,YEARS,F,F,CAUCASIAN,CA,,HISPANIC OR LATINO,HIS,ABC,A / B /C,HISPANIC OR LATINO,100.0,CAUCASIAN,10.0,F,2.0,ABC,A / B /C,,,25/F/Ca,MOON/1001023,1.0,1.0,Y,Y,N,1.0,1.0,5.397605346934028e-79,19296.0,19296.0,C,C,3.0,3.0,1667203200.0,1667980800.0,28800.0,19305.0,19296.0,A / B /C,A / B /C,19309.0,PCCONC,PK concentration (ng/mL),DRUG ANAL 3 Plasma,PC_ANAL 3_NG/ML,7.0,1667203200.0,19296.0,28800.0,1667214000.0,19296.0,39600.0,2660.0,2660,17.270000000000007,GENERAL,5.397605346934028e-79,General,ANALYTE,1.0,Analyte,3 HOURS POST DOSE,DOSE,,,,1.0,1.0,A,A,PERIOD 1,1.0,1.0,1.0,A,1.0
111,Study001,Study001_1001023,1001023,1001,7,112.0,108,ng/mL,527,527.0,ng/mL,PLASMA,27.0,Plasma,PLASMA,,101.0,TREATMENT PERIOD 1,24.0,Treatment period 1,TRTPR1,2012-10-30T12:02:00,1.0,4 HOURS POST DOSE,8.0,PT4H,DOSE,2012-10-30T08:00,1667203200.0,4,,4.03333333,A,108,OK,2012-10-30T08:00,2012-11-12,1668297600.0,25.0,25.0,YEARS,349.0,Years,YEARS,F,F,CAUCASIAN,CA,,HISPANIC OR LATINO,HIS,ABC,A / B /C,HISPANIC OR LATINO,100.0,CAUCASIAN,10.0,F,2.0,ABC,A / B /C,,,25/F/Ca,MOON/1001023,1.0,1.0,Y,Y,N,1.0,1.0,5.397605346934028e-79,19296.0,19296.0,C,C,3.0,3.0,1667203200.0,1667980800.0,28800.0,19305.0,19296.0,A / B /C,A / B /C,19309.0,PCCONC,PK concentration (ng/mL),DRUG ANAL 1 Plasma,PC_ANAL 1_NG/ML,8.0,1667203200.0,19296.0,28800.0,1667217720.0,19296.0,43320.0,527.0,527,15.27,GENERAL,5.397605346934028e-79,General,ANALYTE,1.0,Analyte,4 HOURS POST DOSE,DOSE,,,,1.0,1.0,A,A,PERIOD 1,1.0,1.0,1.0,A,1.0
112,Study001,Study001_1001023,1001023,1001,7,113.0,108,ng/mL,15400,15400.0,ng/mL,PLASMA,27.0,Plasma,PLASMA,,101.0,TREATMENT PERIOD 1,24.0,Treatment period 1,TRTPR1,2012-10-30T12:02:00,1.0,4 HOURS POST DOSE,8.0,PT4H,DOSE,2012-10-30T08:00,1667203200.0,4,,4.03333333,A,108,OK,2012-10-30T08:00,2012-11-12,1668297600.0,25.0,25.0,YEARS,349.0,Years,YEARS,F,F,CAUCASIAN,CA,,HISPANIC OR LATINO,HIS,ABC,A / B /C,HISPANIC OR LATINO,100.0,CAUCASIAN,10.0,F,2.0,ABC,A / B /C,,,25/F/Ca,MOON/1001023,1.0,1.0,Y,Y,N,1.0,1.0,5.397605346934028e-79,19296.0,19296.0,C,C,3.0,3.0,1667203200.0,1667980800.0,28800.0,19305.0,19296.0,A / B /C,A / B /C,19309.0,PCCONC,PK concentration (ng/mL),DRUG ANAL 2 Plasma,PC_ANAL 2_NG/ML,8.0,1667203200.0,19296.0,28800.0,1667217720.0,19296.0,43320.0,15400.0,15400,16.270000000000007,GENERAL,5.397605346934028e-79,General,ANALYTE,1.0,Analyte,4 HOURS POST DOSE,DOSE,,,,1.0,1.0,A,A,PERIOD 1,1.0,1.0,1.0,A,1.0
113,Study001,Study001_1001023,1001023,1001,7,114.0,108,ng/mL,2380,2380.0,ng/mL,PLASMA,27.0,Plasma,PLASMA,,101.0,TREATMENT PERIOD 1,24.0,Treatment period 1,TRTPR1,2012-10-30T12:02:00,1.0,4 HOURS POST DOSE,8.0,PT4H,DOSE,2012-10-30T08:00,1667203200.0,4,,4.03333333,A,108,OK,2012-10-30T08:00,2012-11-12,1668297600.0,25.0,25.0,YEARS,349.0,Years,YEARS,F,F,CAUCASIAN,CA,,HISPANIC OR LATINO,HIS,ABC,A / B /C,HISPANIC OR LATINO,100.0,CAUCASIAN,10.0,F,2.0,ABC,A / B /C,,,25/F/Ca,MOON/1001023,1.0,1.0,Y,Y,N,1.0,1.0,5.397605346934028e-79,19296.0,19296.0,C,C,3.0,3.0,1667203200.0,1667980800.0,28800.0,19305.0,19296.0,A / B /C,A / B /C,19309.0,PCCONC,PK concentration (ng/mL),DRUG ANAL 3 Plasma,PC_ANAL 3_NG/ML,8.0,1667203200.0,19296.0,28800.0,1667217720.0,19296.0,43320.0,2380.0,2380,17.270000000000007,GENERAL,5.397605346934028e-79,General,ANALYTE,1.0,Analyte,4 HOURS POST DOSE,DOSE,,,,1.0,1.0,A,A,PERIOD 1,1.0,1.0,1.0,A,1.0
114,Study001,Study001_1001023,1001023,1001,7,115.0,109,ng/mL,      38.8,38.800000000000004,ng/mL,PLASMA,27.0,Plasma,PLASMA,,101.0,TREATMENT PERIOD 1,24.0,Treatment period 1,TRTPR1,2012-10-30T14:00:00,1.0,6 HOURS POST DOSE,9.0,PT6H,DOSE,2012-10-30T08:00,1667203200.0,6,,6,A,109,OK,2012-10-30T08:00,2012-11-12,1668297600.0,25.0,25.0,YEARS,349.0,Years,YEARS,F,F,CAUCASIAN,CA,,HISPANIC OR LATINO,HIS,ABC,A / B /C,HISPANIC OR LATINO,100.0,CAUCASIAN,10.0,F,2.0,ABC,A / B /C,,,25/F/Ca,MOON/1001023,1.0,1.0,Y,Y,N,1.0,1.0,5.397605346934028e-79,19296.0,19296.0,C,C,3.0,3.0,1667203200.0,1667980800.0,28800.0,19305.0,19296.0,A / B /C,A / B /C,19309.0,PCCONC,PK concentration (ng/mL),DRUG ANAL 1 Plasma,PC_ANAL 1_NG/ML,9.0,1667203200.0,19296.0,28800.0,1667224800.0,19296.0,50400.0,38.800000000000004,      38.8,15.27,GENERAL,5.397605346934028e-79,General,ANALYTE,1.0,Analyte,6 HOURS POST DOSE,DOSE,,,,1.0,1.0,A,A,PERIOD 1,1.0,1.0,1.0,A,1.0
115,Study001,Study001_1001023,1001023,1001,7,116.0,109,ng/mL,9570,9570.0,ng/mL,PLASMA,27.0,Plasma,PLASMA,,101.0,TREATMENT PERIOD 1,24.0,Treatment period 1,TRTPR1,2012-10-30T14:00:00,1.0,6 HOURS POST DOSE,9.0,PT6H,DOSE,2012-10-30T08:00,1667203200.0,6,,6,A,109,OK,2012-10-30T08:00,2012-11-12,1668297600.0,25.0,25.0,YEARS,349.0,Years,YEARS,F,F,CAUCASIAN,CA,,HISPANIC OR LATINO,HIS,ABC,A / B /C,HISPANIC OR LATINO,100.0,CAUCASIAN,10.0,F,2.0,ABC,A / B /C,,,25/F/Ca,MOON/1001023,1.0,1.0,Y,Y,N,1.0,1.0,5.397605346934028e-79,19296.0,19296.0,C,C,3.0,3.0,1667203200.0,1667980800.0,28800.0,19305.0,19296.0,A / B /C,A / B /C,19309.0,PCCONC,PK concentration (ng/mL),DRUG ANAL 2 Plasma,PC_ANAL 2_NG/ML,9.0,1667203200.0,19296.0,28800.0,1667224800.0,19296.0,50400.0,9570.0,9570,16.270000000000007,GENERAL,5.397605346934028e-79,General,ANALYTE,1.0,Analyte,6 HOURS POST DOSE,DOSE,,,,1.0,1.0,A,A,PERIOD 1,1.0,1.0,1.0,A,1.0
116,Study001,Study001_1001023,1001023,1001,7,117.0,109,ng/mL,1280,1280.0,ng/mL,PLASMA,27.0,Plasma,PLASMA,,101.0,TREATMENT PERIOD 1,24.0,Treatment period 1,TRTPR1,2012-10-30T14:00:00,1.0,6 HOURS POST DOSE,9.0,PT6H,DOSE,2012-10-30T08:00,1667203200.0,6,,6,A,109,OK,2012-10-30T08:00,2012-11-12,1668297600.0,25.0,25.0,YEARS,349.0,Years,YEARS,F,F,CAUCASIAN,CA,,HISPANIC OR LATINO,HIS,ABC,A / B /C,HISPANIC OR LATINO,100.0,CAUCASIAN,10.0,F,2.0,ABC,A / B /C,,,25/F/Ca,MOON/1001023,1.0,1.0,Y,Y,N,1.0,1.0,5.397605346934028e-79,19296.0,19296.0,C,C,3.0,3.0,1667203200.0,1667980800.0,28800.0,19305.0,19296.0,A / B /C,A / B /C,19309.0,PCCONC,PK concentration (ng/mL),DRUG ANAL 3 Plasma,PC_ANAL 3_NG/ML,9.0,1667203200.0,19296.0,28800.0,1667224800.0,19296.0,50400.0,1280.0,1280,17.270000000000007,GENERAL,5.397605346934028e-79,General,ANALYTE,1.0,Analyte,6 HOURS POST DOSE,DOSE,,,,1.0,1.0,A,A,PERIOD 1,1.0,1.0,1.0,A,1.0
117,Study001,Study001_1001023,1001023,1001,7,118.0,110,ng/mL,      7.97,7.97,ng/mL,PLASMA,27.0,Plasma,PLASMA,,101.0,TREATMENT PERIOD 1,24.0,Treatment period 1,TRTPR1,2012-10-30T16:00:00,1.0,8 HOURS POST DOSE,10.0,PT8H,DOSE,2012-10-30T08:00,1667203200.0,8,,8,A,110,OK,2012-10-30T08:00,2012-11-12,1668297600.0,25.0,25.0,YEARS,349.0,Years,YEARS,F,F,CAUCASIAN,CA,,HISPANIC OR LATINO,HIS,ABC,A / B /C,HISPANIC OR LATINO,100.0,CAUCASIAN,10.0,F,2.0,ABC,A / B /C,,,25/F/Ca,MOON/1001023,1.0,1.0,Y,Y,N,1.0,1.0,5.397605346934028e-79,19296.0,19296.0,C,C,3.0,3.0,1667203200.0,1667980800.0,28800.0,19305.0,19296.0,A / B /C,A / B /C,19309.0,PCCONC,PK concentration (ng/mL),DRUG ANAL 1 Plasma,PC_ANAL 1_NG/ML,10.0,1667203200.0,19296.0,28800.0,1667232000.0,19296.0,57600.0,7.97,      7.97,15.27,GENERAL,5.397605346934028e-79,General,ANALYTE,1.0,Analyte,8 HOURS POST DOSE,DOSE,,,,1.0,1.0,A,A,PERIOD 1,1.0,1.0,1.0,A,1.0
118,Study001,Study001_1001023,1001023,1001,7,119.0,110,ng/mL,6200,6200.0,ng/mL,PLASMA,27.0,Plasma,PLASMA,,101.0,TREATMENT PERIOD 1,24.0,Treatment period 1,TRTPR1,2012-10-30T16:00:00,1.0,8 HOURS POST DOSE,10.0,PT8H,DOSE,2012-10-30T08:00,1667203200.0,8,,8,A,110,OK,2012-10-30T08:00,2012-11-12,1668297600.0,25.0,25.0,YEARS,349.0,Years,YEARS,F,F,CAUCASIAN,CA,,HISPANIC OR LATINO,HIS,ABC,A / B /C,HISPANIC OR LATINO,100.0,CAUCASIAN,10.0,F,2.0,ABC,A / B /C,,,25/F/Ca,MOON/1001023,1.0,1.0,Y,Y,N,1.0,1.0,5.397605346934028e-79,19296.0,19296.0,C,C,3.0,3.0,1667203200.0,1667980800.0,28800.0,19305.0,19296.0,A / B /C,A / B /C,19309.0,PCCONC,PK concentration (ng/mL),DRUG ANAL 2 Plasma,PC_ANAL 2_NG/ML,10.0,1667203200.0,19296.0,28800.0,1667232000.0,19296.0,57600.0,6200.0,6200,16.270000000000007,GENERAL,5.397605346934028e-79,General,ANALYTE,1.0,Analyte,8 HOURS POST DOSE,DOSE,,,,1.0,1.0,A,A,PERIOD 1,1.0,1.0,1.0,A,1.0
119,Study001,Study001_1001023,1001023,1001,7,120.0,110,ng/mL,1200,1200.0,ng/mL,PLASMA,27.0,Plasma,PLASMA,,101.0,TREATMENT PERIOD 1,24.0,Treatment period 1,TRTPR1,2012-10-30T16:00:00,1.0,8 HOURS POST DOSE,10.0,PT8H,DOSE,2012-10-30T08:00,1667203200.0,8,,8,A,110,OK,2012-10-30T08:00,2012-11-12,1668297600.0,25.0,25.0,YEARS,349.0,Years,YEARS,F,F,CAUCASIAN,CA,,HISPANIC OR LATINO,HIS,ABC,A / B /C,HISPANIC OR LATINO,100.0,CAUCASIAN,10.0,F,2.0,ABC,A / B /C,,,25/F/Ca,MOON/1001023,1.0,1.0,Y,Y,N,1.0,1.0,5.397605346934028e-79,19296.0,19296.0,C,C,3.0,3.0,1667203200.0,1667980800.0,28800.0,19305.0,19296.0,A / B /C,A / B /C,19309.0,PCCONC,PK concentration (ng/mL),DRUG ANAL 3 Plasma,PC_ANAL 3_NG/ML,10.0,1667203200.0,19296.0,28800.0,1667232000.0,19296.0,57600.0,1200.0,1200,17.270000000000007,GENERAL,5.397605346934028e-79,General,ANALYTE,1.0,Analyte,8 HOURS POST DOSE,DOSE,,,,1.0,1.0,A,A,PERIOD 1,1.0,1.0,1.0,A,1.0
120,Study001,Study001_1001023,1001023,1001,7,121.0,111,ng/mL,0,5.397605346934028e-79,ng/mL,PLASMA,27.0,Plasma,PLASMA,1.0,101.0,TREATMENT PERIOD 1,24.0,Treatment period 1,TRTPR1,2012-10-30T20:00:00,1.0,12 HOURS POST DOSE,11.0,PT12H,DOSE,2012-10-30T08:00,1667203200.0,12,,12,A,111,OK,2012-10-30T08:00,2012-11-12,1668297600.0,25.0,25.0,YEARS,349.0,Years,YEARS,F,F,CAUCASIAN,CA,,HISPANIC OR LATINO,HIS,ABC,A / B /C,HISPANIC OR LATINO,100.0,CAUCASIAN,10.0,F,2.0,ABC,A / B /C,,,25/F/Ca,MOON/1001023,1.0,1.0,Y,Y,N,1.0,1.0,5.397605346934028e-79,19296.0,19296.0,C,C,3.0,3.0,1667203200.0,1667980800.0,28800.0,19305.0,19296.0,A / B /C,A / B /C,19309.0,PCCONC,PK concentration (ng/mL),DRUG ANAL 1 Plasma,PC_ANAL 1_NG/ML,11.0,1667203200.0,19296.0,28800.0,1667246400.0,19296.0,72000.0,5.397605346934028e-79,0,15.27,GENERAL,5.397605346934028e-79,General,ANALYTE,1.0,Analyte,12 HOURS POST DOSE,DOSE,,,,1.0,1.0,A,A,PERIOD 1,1.0,1.0,1.0,A,1.0
121,Study001,Study001_1001023,1001023,1001,7,122.0,111,ng/mL,3360,3360.0,ng/mL,PLASMA,27.0,Plasma,PLASMA,,101.0,TREATMENT PERIOD 1,24.0,Treatment period 1,TRTPR1,2012-10-30T20:00:00,1.0,12 HOURS POST DOSE,11.0,PT12H,DOSE,2012-10-30T08:00,1667203200.0,12,,12,A,111,OK,2012-10-30T08:00,2012-11-12,1668297600.0,25.0,25.0,YEARS,349.0,Years,YEARS,F,F,CAUCASIAN,CA,,HISPANIC OR LATINO,HIS,ABC,A / B /C,HISPANIC OR LATINO,100.0,CAUCASIAN,10.0,F,2.0,ABC,A / B /C,,,25/F/Ca,MOON/1001023,1.0,1.0,Y,Y,N,1.0,1.0,5.397605346934028e-79,19296.0,19296.0,C,C,3.0,3.0,1667203200.0,1667980800.0,28800.0,19305.0,19296.0,A / B /C,A / B /C,19309.0,PCCONC,PK concentration (ng/mL),DRUG ANAL 2 Plasma,PC_ANAL 2_NG/ML,11.0,1667203200.0,19296.0,28800.0,1667246400.0,19296.0,72000.0,3360.0,3360,16.270000000000007,GENERAL,5.397605346934028e-79,General,ANALYTE,1.0,Analyte,12 HOURS POST DOSE,DOSE,,,,1.0,1.0,A,A,PERIOD 1,1.0,1.0,1.0,A,1.0
122,Study001,Study001_1001023,1001023,1001,7,123.0,111,ng/mL,412,412.0,ng/mL,PLASMA,27.0,Plasma,PLASMA,,101.0,TREATMENT PERIOD 1,24.0,Treatment period 1,TRTPR1,2012-10-30T20:00:00,1.0,12 HOURS POST DOSE,11.0,PT12H,DOSE,2012-10-30T08:00,1667203200.0,12,,12,A,111,OK,2012-10-30T08:00,2012-11-12,1668297600.0,25.0,25.0,YEARS,349.0,Years,YEARS,F,F,CAUCASIAN,CA,,HISPANIC OR LATINO,HIS,ABC,A / B /C,HISPANIC OR LATINO,100.0,CAUCASIAN,10.0,F,2.0,ABC,A / B /C,,,25/F/Ca,MOON/1001023,1.0,1.0,Y,Y,N,1.0,1.0,5.397605346934028e-79,19296.0,19296.0,C,C,3.0,3.0,1667203200.0,1667980800.0,28800.0,19305.0,19296.0,A / B /C,A / B /C,19309.0,PCCONC,PK concentration (ng/mL),DRUG ANAL 3 Plasma,PC_ANAL 3_NG/ML,11.0,1667203200.0,19296.0,28800.0,1667246400.0,19296.0,72000.0,412.0,412,17.270000000000007,GENERAL,5.397605346934028e-79,General,ANALYTE,1.0,Analyte,12 HOURS POST DOSE,DOSE,,,,1.0,1.0,A,A,PERIOD 1,1.0,1.0,1.0,A,1.0
123,Study001,Study001_1001023,1001023,1001,7,124.0,112,ng/mL,0,5.397605346934028e-79,ng/mL,PLASMA,27.0,Plasma,PLASMA,1.0,102.0,TREATMENT PERIOD 1,24.0,Treatment period 1,TRTPR1,2012-10-31T08:00:00,2.0,24 HOURS POST DOSE,12.0,PT24H,DOSE,2012-10-30T08:00,1667203200.0,24,,24,A,112,OK,2012-10-30T08:00,2012-11-12,1668297600.0,25.0,25.0,YEARS,349.0,Years,YEARS,F,F,CAUCASIAN,CA,,HISPANIC OR LATINO,HIS,ABC,A / B /C,HISPANIC OR LATINO,100.0,CAUCASIAN,10.0,F,2.0,ABC,A / B /C,,,25/F/Ca,MOON/1001023,1.0,1.0,Y,Y,N,1.0,1.0,5.397605346934028e-79,19296.0,19296.0,C,C,3.0,3.0,1667203200.0,1667980800.0,28800.0,19305.0,19296.0,A / B /C,A / B /C,19309.0,PCCONC,PK concentration (ng/mL),DRUG ANAL 1 Plasma,PC_ANAL 1_NG/ML,12.0,1667203200.0,19296.0,28800.0,1667289600.0,19297.0,28800.0,5.397605346934028e-79,0,15.27,GENERAL,5.397605346934028e-79,General,ANALYTE,1.0,Analyte,24 HOURS POST DOSE,DOSE,,,,1.0,2.0,A,A,PERIOD 1,1.0,1.0,1.0,A,2.0
124,Study001,Study001_1001023,1001023,1001,7,125.0,112,ng/mL,866,866.0,ng/mL,PLASMA,27.0,Plasma,PLASMA,,102.0,TREATMENT PERIOD 1,24.0,Treatment period 1,TRTPR1,2012-10-31T08:00:00,2.0,24 HOURS POST DOSE,12.0,PT24H,DOSE,2012-10-30T08:00,1667203200.0,24,,24,A,112,OK,2012-10-30T08:00,2012-11-12,1668297600.0,25.0,25.0,YEARS,349.0,Years,YEARS,F,F,CAUCASIAN,CA,,HISPANIC OR LATINO,HIS,ABC,A / B /C,HISPANIC OR LATINO,100.0,CAUCASIAN,10.0,F,2.0,ABC,A / B /C,,,25/F/Ca,MOON/1001023,1.0,1.0,Y,Y,N,1.0,1.0,5.397605346934028e-79,19296.0,19296.0,C,C,3.0,3.0,1667203200.0,1667980800.0,28800.0,19305.0,19296.0,A / B /C,A / B /C,19309.0,PCCONC,PK concentration (ng/mL),DRUG ANAL 2 Plasma,PC_ANAL 2_NG/ML,12.0,1667203200.0,19296.0,28800.0,1667289600.0,19297.0,28800.0,866.0,866,16.270000000000007,GENERAL,5.397605346934028e-79,General,ANALYTE,1.0,Analyte,24 HOURS POST DOSE,DOSE,,,,1.0,2.0,A,A,PERIOD 1,1.0,1.0,1.0,A,2.0
125,Study001,Study001_1001023,1001023,1001,7,126.0,112,ng/mL,110,110.0,ng/mL,PLASMA,27.0,Plasma,PLASMA,,102.0,TREATMENT PERIOD 1,24.0,Treatment period 1,TRTPR1,2012-10-31T08:00:00,2.0,24 HOURS POST DOSE,12.0,PT24H,DOSE,2012-10-30T08:00,1667203200.0,24,,24,A,112,OK,2012-10-30T08:00,2012-11-12,1668297600.0,25.0,25.0,YEARS,349.0,Years,YEARS,F,F,CAUCASIAN,CA,,HISPANIC OR LATINO,HIS,ABC,A / B /C,HISPANIC OR LATINO,100.0,CAUCASIAN,10.0,F,2.0,ABC,A / B /C,,,25/F/Ca,MOON/1001023,1.0,1.0,Y,Y,N,1.0,1.0,5.397605346934028e-79,19296.0,19296.0,C,C,3.0,3.0,1667203200.0,1667980800.0,28800.0,19305.0,19296.0,A / B /C,A / B /C,19309.0,PCCONC,PK concentration (ng/mL),DRUG ANAL 3 Plasma,PC_ANAL 3_NG/ML,12.0,1667203200.0,19296.0,28800.0,1667289600.0,19297.0,28800.0,110.0,110,17.270000000000007,GENERAL,5.397605346934028e-79,General,ANALYTE,1.0,Analyte,24 HOURS POST DOSE,DOSE,,,,1.0,2.0,A,A,PERIOD 1,1.0,1.0,1.0,A,2.0
126,Study001,Study001_1001023,1001023,1001,7,127.0,113,ng/mL,0,5.397605346934028e-79,ng/mL,PLASMA,27.0,Plasma,PLASMA,1.0,103.0,TREATMENT PERIOD 1,24.0,Treatment period 1,TRTPR1,2012-11-01T08:00:00,3.0,48 HOURS POST DOSE,13.0,PT48H,DOSE,2012-10-30T08:00,1667203200.0,48,,48,A,113,OK,2012-10-30T08:00,2012-11-12,1668297600.0,25.0,25.0,YEARS,349.0,Years,YEARS,F,F,CAUCASIAN,CA,,HISPANIC OR LATINO,HIS,ABC,A / B /C,HISPANIC OR LATINO,100.0,CAUCASIAN,10.0,F,2.0,ABC,A / B /C,,,25/F/Ca,MOON/1001023,1.0,1.0,Y,Y,N,1.0,1.0,5.397605346934028e-79,19296.0,19296.0,C,C,3.0,3.0,1667203200.0,1667980800.0,28800.0,19305.0,19296.0,A / B /C,A / B /C,19309.0,PCCONC,PK concentration (ng/mL),DRUG ANAL 1 Plasma,PC_ANAL 1_NG/ML,13.0,1667203200.0,19296.0,28800.0,1667376000.0,19298.0,28800.0,5.397605346934028e-79,0,15.27,GENERAL,5.397605346934028e-79,General,ANALYTE,1.0,Analyte,48 HOURS POST DOSE,DOSE,,,,1.0,3.0,A,A,PERIOD 1,1.0,1.0,1.0,A,3.0
127,Study001,Study001_1001023,1001023,1001,7,128.0,113,ng/mL,      83.2,83.2,ng/mL,PLASMA,27.0,Plasma,PLASMA,,103.0,TREATMENT PERIOD 1,24.0,Treatment period 1,TRTPR1,2012-11-01T08:00:00,3.0,48 HOURS POST DOSE,13.0,PT48H,DOSE,2012-10-30T08:00,1667203200.0,48,,48,A,113,OK,2012-10-30T08:00,2012-11-12,1668297600.0,25.0,25.0,YEARS,349.0,Years,YEARS,F,F,CAUCASIAN,CA,,HISPANIC OR LATINO,HIS,ABC,A / B /C,HISPANIC OR LATINO,100.0,CAUCASIAN,10.0,F,2.0,ABC,A / B /C,,,25/F/Ca,MOON/1001023,1.0,1.0,Y,Y,N,1.0,1.0,5.397605346934028e-79,19296.0,19296.0,C,C,3.0,3.0,1667203200.0,1667980800.0,28800.0,19305.0,19296.0,A / B /C,A / B /C,19309.0,PCCONC,PK concentration (ng/mL),DRUG ANAL 2 Plasma,PC_ANAL 2_NG/ML,13.0,1667203200.0,19296.0,28800.0,1667376000.0,19298.0,28800.0,83.2,      83.2,16.270000000000007,GENERAL,5.397605346934028e-79,General,ANALYTE,1.0,Analyte,48 HOURS POST DOSE,DOSE,,,,1.0,3.0,A,A,PERIOD 1,1.0,1.0,1.0,A,3.0
128,Study001,Study001_1001023,1001023,1001,7,129.0,113,ng/mL,      10.2,10.200000000000001,ng/mL,PLASMA,27.0,Plasma,PLASMA,,103.0,TREATMENT PERIOD 1,24.0,Treatment period 1,TRTPR1,2012-11-01T08:00:00,3.0,48 HOURS POST DOSE,13.0,PT48H,DOSE,2012-10-30T08:00,1667203200.0,48,,48,A,113,OK,2012-10-30T08:00,2012-11-12,1668297600.0,25.0,25.0,YEARS,349.0,Years,YEARS,F,F,CAUCASIAN,CA,,HISPANIC OR LATINO,HIS,ABC,A / B /C,HISPANIC OR LATINO,100.0,CAUCASIAN,10.0,F,2.0,ABC,A / B /C,,,25/F/Ca,MOON/1001023,1.0,1.0,Y,Y,N,1.0,1.0,5.397605346934028e-79,19296.0,19296.0,C,C,3.0,3.0,1667203200.0,1667980800.0,28800.0,19305.0,19296.0,A / B /C,A / B /C,19309.0,PCCONC,PK concentration (ng/mL),DRUG ANAL 3 Plasma,PC_ANAL 3_NG/ML,13.0,1667203200.0,19296.0,28800.0,1667376000.0,19298.0,28800.0,10.200000000000001,      10.2,17.270000000000007,GENERAL,5.397605346934028e-79,General,ANALYTE,1.0,Analyte,48 HOURS POST DOSE,DOSE,,,,1.0,3.0,A,A,PERIOD 1,1.0,1.0,1.0,A,3.0
129,Study001,Study001_1001023,1001023,1001,7,130.0,114,ng/mL,0,5.397605346934028e-79,ng/mL,PLASMA,27.0,Plasma,PLASMA,1.0,104.0,TREATMENT PERIOD 1,24.0,Treatment period 1,TRTPR1,2012-11-02T08:00:00,4.0,72 HOURS POST DOSE,14.0,PT72H,DOSE,2012-10-30T08:00,1667203200.0,72,,72,A,114,OK,2012-10-30T08:00,2012-11-12,1668297600.0,25.0,25.0,YEARS,349.0,Years,YEARS,F,F,CAUCASIAN,CA,,HISPANIC OR LATINO,HIS,ABC,A / B /C,HISPANIC OR LATINO,100.0,CAUCASIAN,10.0,F,2.0,ABC,A / B /C,,,25/F/Ca,MOON/1001023,1.0,1.0,Y,Y,N,1.0,1.0,5.397605346934028e-79,19296.0,19296.0,C,C,3.0,3.0,1667203200.0,1667980800.0,28800.0,19305.0,19296.0,A / B /C,A / B /C,19309.0,PCCONC,PK concentration (ng/mL),DRUG ANAL 1 Plasma,PC_ANAL 1_NG/ML,14.0,1667203200.0,19296.0,28800.0,1667462400.0,19299.0,28800.0,5.397605346934028e-79,0,15.27,GENERAL,5.397605346934028e-79,General,ANALYTE,1.0,Analyte,72 HOURS POST DOSE,DOSE,,,,1.0,4.0,A,A,PERIOD 1,1.0,1.0,1.0,A,4.0
130,Study001,Study001_1001023,1001023,1001,7,131.0,114,ng/mL,0,5.397605346934028e-79,ng/mL,PLASMA,27.0,Plasma,PLASMA,20.0,104.0,TREATMENT PERIOD 1,24.0,Treatment period 1,TRTPR1,2012-11-02T08:00:00,4.0,72 HOURS POST DOSE,14.0,PT72H,DOSE,2012-10-30T08:00,1667203200.0,72,,72,A,114,OK,2012-10-30T08:00,2012-11-12,1668297600.0,25.0,25.0,YEARS,349.0,Years,YEARS,F,F,CAUCASIAN,CA,,HISPANIC OR LATINO,HIS,ABC,A / B /C,HISPANIC OR LATINO,100.0,CAUCASIAN,10.0,F,2.0,ABC,A / B /C,,,25/F/Ca,MOON/1001023,1.0,1.0,Y,Y,N,1.0,1.0,5.397605346934028e-79,19296.0,19296.0,C,C,3.0,3.0,1667203200.0,1667980800.0,28800.0,19305.0,19296.0,A / B /C,A / B /C,19309.0,PCCONC,PK concentration (ng/mL),DRUG ANAL 2 Plasma,PC_ANAL 2_NG/ML,14.0,1667203200.0,19296.0,28800.0,1667462400.0,19299.0,28800.0,5.397605346934028e-79,0,16.270000000000007,GENERAL,5.397605346934028e-79,General,ANALYTE,1.0,Analyte,72 HOURS POST DOSE,DOSE,,,,1.0,4.0,A,A,PERIOD 1,1.0,1.0,1.0,A,4.0
131,Study001,Study001_1001023,1001023,1001,7,132.0,114,ng/mL,0,5.397605346934028e-79,ng/mL,PLASMA,27.0,Plasma,PLASMA,10.0,104.0,TREATMENT PERIOD 1,24.0,Treatment period 1,TRTPR1,2012-11-02T08:00:00,4.0,72 HOURS POST DOSE,14.0,PT72H,DOSE,2012-10-30T08:00,1667203200.0,72,,72,A,114,OK,2012-10-30T08:00,2012-11-12,1668297600.0,25.0,25.0,YEARS,349.0,Years,YEARS,F,F,CAUCASIAN,CA,,HISPANIC OR LATINO,HIS,ABC,A / B /C,HISPANIC OR LATINO,100.0,CAUCASIAN,10.0,F,2.0,ABC,A / B /C,,,25/F/Ca,MOON/1001023,1.0,1.0,Y,Y,N,1.0,1.0,5.397605346934028e-79,19296.0,19296.0,C,C,3.0,3.0,1667203200.0,1667980800.0,28800.0,19305.0,19296.0,A / B /C,A / B /C,19309.0,PCCONC,PK concentration (ng/mL),DRUG ANAL 3 Plasma,PC_ANAL 3_NG/ML,14.0,1667203200.0,19296.0,28800.0,1667462400.0,19299.0,28800.0,5.397605346934028e-79,0,17.270000000000007,GENERAL,5.397605346934028e-79,General,ANALYTE,1.0,Analyte,72 HOURS POST DOSE,DOSE,,,,1.0,4.0,A,A,PERIOD 1,1.0,1.0,1.0,A,4.0
132,Study001,Study001_1001023,1001023,1001,7,133.0,115,ng/mL,0,5.397605346934028e-79,ng/mL,PLASMA,27.0,Plasma,PLASMA,1.0,199.0,TREATMENT PERIOD 1,24.0,Treatment period 1,TRTPR1,2012-11-03T08:00:00,5.0,96 HOURS POST DOSE,15.0,PT96H,DOSE,2012-10-30T08:00,1667203200.0,96,,96,A,115,OK,2012-10-30T08:00,2012-11-12,1668297600.0,25.0,25.0,YEARS,349.0,Years,YEARS,F,F,CAUCASIAN,CA,,HISPANIC OR LATINO,HIS,ABC,A / B /C,HISPANIC OR LATINO,100.0,CAUCASIAN,10.0,F,2.0,ABC,A / B /C,,,25/F/Ca,MOON/1001023,1.0,1.0,Y,Y,N,1.0,1.0,5.397605346934028e-79,19296.0,19296.0,C,C,3.0,3.0,1667203200.0,1667980800.0,28800.0,19305.0,19296.0,A / B /C,A / B /C,19309.0,PCCONC,PK concentration (ng/mL),DRUG ANAL 1 Plasma,PC_ANAL 1_NG/ML,15.0,1667203200.0,19296.0,28800.0,1667548800.0,19300.0,28800.0,5.397605346934028e-79,0,15.27,GENERAL,5.397605346934028e-79,General,ANALYTE,1.0,Analyte,96 HOURS POST DOSE,DOSE,,,,1.0,5.0,A,A,PERIOD 1,1.0,1.0,1.0,A,5.0
133,Study001,Study001_1001023,1001023,1001,7,134.0,115,ng/mL,0,5.397605346934028e-79,ng/mL,PLASMA,27.0,Plasma,PLASMA,20.0,199.0,TREATMENT PERIOD 1,24.0,Treatment period 1,TRTPR1,2012-11-03T08:00:00,5.0,96 HOURS POST DOSE,15.0,PT96H,DOSE,2012-10-30T08:00,1667203200.0,96,,96,A,115,OK,2012-10-30T08:00,2012-11-12,1668297600.0,25.0,25.0,YEARS,349.0,Years,YEARS,F,F,CAUCASIAN,CA,,HISPANIC OR LATINO,HIS,ABC,A / B /C,HISPANIC OR LATINO,100.0,CAUCASIAN,10.0,F,2.0,ABC,A / B /C,,,25/F/Ca,MOON/1001023,1.0,1.0,Y,Y,N,1.0,1.0,5.397605346934028e-79,19296.0,19296.0,C,C,3.0,3.0,1667203200.0,1667980800.0,28800.0,19305.0,19296.0,A / B /C,A / B /C,19309.0,PCCONC,PK concentration (ng/mL),DRUG ANAL 2 Plasma,PC_ANAL 2_NG/ML,15.0,1667203200.0,19296.0,28800.0,1667548800.0,19300.0,28800.0,5.397605346934028e-79,0,16.270000000000007,GENERAL,5.397605346934028e-79,General,ANALYTE,1.0,Analyte,96 HOURS POST DOSE,DOSE,,,,1.0,5.0,A,A,PERIOD 1,1.0,1.0,1.0,A,5.0
134,Study001,Study001_1001023,1001023,1001,7,135.0,115,ng/mL,0,5.397605346934028e-79,ng/mL,PLASMA,27.0,Plasma,PLASMA,10.0,199.0,TREATMENT PERIOD 1,24.0,Treatment period 1,TRTPR1,2012-11-03T08:00:00,5.0,96 HOURS POST DOSE,15.0,PT96H,DOSE,2012-10-30T08:00,1667203200.0,96,,96,A,115,OK,2012-10-30T08:00,2012-11-12,1668297600.0,25.0,25.0,YEARS,349.0,Years,YEARS,F,F,CAUCASIAN,CA,,HISPANIC OR LATINO,HIS,ABC,A / B /C,HISPANIC OR LATINO,100.0,CAUCASIAN,10.0,F,2.0,ABC,A / B /C,,,25/F/Ca,MOON/1001023,1.0,1.0,Y,Y,N,1.0,1.0,5.397605346934028e-79,19296.0,19296.0,C,C,3.0,3.0,1667203200.0,1667980800.0,28800.0,19305.0,19296.0,A / B /C,A / B /C,19309.0,PCCONC,PK concentration (ng/mL),DRUG ANAL 3 Plasma,PC_ANAL 3_NG/ML,15.0,1667203200.0,19296.0,28800.0,1667548800.0,19300.0,28800.0,5.397605346934028e-79,0,17.270000000000007,GENERAL,5.397605346934028e-79,General,ANALYTE,1.0,Analyte,96 HOURS POST DOSE,DOSE,,,,1.0,5.0,A,A,PERIOD 1,1.0,1.0,1.0,A,5.0
135,Study001,Study001_1001023,1001023,1001,7,136.0,116,ng/mL,0,5.397605346934028e-79,ng/mL,PLASMA,27.0,Plasma,PLASMA,1.0,205.0,TREATMENT PERIOD 2,25.0,Treatment period 2,TRTPR2,2012-11-08T07:50:00,10.0,0 HOURS PRE DOSE,1.0,-PT0H,DOSE,2012-11-08T08:00,1667980800.0,0,,0,A,116,OK,2012-10-30T08:00,2012-11-12,1668297600.0,25.0,25.0,YEARS,349.0,Years,YEARS,F,F,CAUCASIAN,CA,,HISPANIC OR LATINO,HIS,ABC,A / B /C,HISPANIC OR LATINO,100.0,CAUCASIAN,10.0,F,2.0,ABC,A / B /C,,,25/F/Ca,MOON/1001023,1.0,1.0,Y,Y,N,1.0,1.0,5.397605346934028e-79,19296.0,19296.0,C,C,3.0,3.0,1667203200.0,1667980800.0,28800.0,19305.0,19296.0,A / B /C,A / B /C,19309.0,PCCONC,PK concentration (ng/mL),DRUG ANAL 1 Plasma,PC_ANAL 1_NG/ML,1.0,1667980800.0,19305.0,28800.0,1667980200.0,19305.0,28200.0,5.397605346934028e-79,0,15.27,GENERAL,5.397605346934028e-79,General,ANALYTE,1.0,Analyte,0 HOURS PRE DOSE,DOSE,,,,1.0,1.0,C,C,PERIOD 3,3.0,3.0,3.0,C,1.0
136,Study001,Study001_1001023,1001023,1001,7,137.0,116,ng/mL,0,5.397605346934028e-79,ng/mL,PLASMA,27.0,Plasma,PLASMA,20.0,205.0,TREATMENT PERIOD 2,25.0,Treatment period 2,TRTPR2,2012-11-08T07:50:00,10.0,0 HOURS PRE DOSE,1.0,-PT0H,DOSE,2012-11-08T08:00,1667980800.0,0,,0,A,116,OK,2012-10-30T08:00,2012-11-12,1668297600.0,25.0,25.0,YEARS,349.0,Years,YEARS,F,F,CAUCASIAN,CA,,HISPANIC OR LATINO,HIS,ABC,A / B /C,HISPANIC OR LATINO,100.0,CAUCASIAN,10.0,F,2.0,ABC,A / B /C,,,25/F/Ca,MOON/1001023,1.0,1.0,Y,Y,N,1.0,1.0,5.397605346934028e-79,19296.0,19296.0,C,C,3.0,3.0,1667203200.0,1667980800.0,28800.0,19305.0,19296.0,A / B /C,A / B /C,19309.0,PCCONC,PK concentration (ng/mL),DRUG ANAL 2 Plasma,PC_ANAL 2_NG/ML,1.0,1667980800.0,19305.0,28800.0,1667980200.0,19305.0,28200.0,5.397605346934028e-79,0,16.270000000000007,GENERAL,5.397605346934028e-79,General,ANALYTE,1.0,Analyte,0 HOURS PRE DOSE,DOSE,,,,1.0,1.0,C,C,PERIOD 3,3.0,3.0,3.0,C,1.0
137,Study001,Study001_1001023,1001023,1001,7,138.0,116,ng/mL,0,5.397605346934028e-79,ng/mL,PLASMA,27.0,Plasma,PLASMA,10.0,205.0,TREATMENT PERIOD 2,25.0,Treatment period 2,TRTPR2,2012-11-08T07:50:00,10.0,0 HOURS PRE DOSE,1.0,-PT0H,DOSE,2012-11-08T08:00,1667980800.0,0,,0,A,116,OK,2012-10-30T08:00,2012-11-12,1668297600.0,25.0,25.0,YEARS,349.0,Years,YEARS,F,F,CAUCASIAN,CA,,HISPANIC OR LATINO,HIS,ABC,A / B /C,HISPANIC OR LATINO,100.0,CAUCASIAN,10.0,F,2.0,ABC,A / B /C,,,25/F/Ca,MOON/1001023,1.0,1.0,Y,Y,N,1.0,1.0,5.397605346934028e-79,19296.0,19296.0,C,C,3.0,3.0,1667203200.0,1667980800.0,28800.0,19305.0,19296.0,A / B /C,A / B /C,19309.0,PCCONC,PK concentration (ng/mL),DRUG ANAL 3 Plasma,PC_ANAL 3_NG/ML,1.0,1667980800.0,19305.0,28800.0,1667980200.0,19305.0,28200.0,5.397605346934028e-79,0,17.270000000000007,GENERAL,5.397605346934028e-79,General,ANALYTE,1.0,Analyte,0 HOURS PRE DOSE,DOSE,,,,1.0,1.0,C,C,PERIOD 3,3.0,3.0,3.0,C,1.0
138,Study001,Study001_1001023,1001023,1001,7,139.0,117,ng/mL,227,227.0,ng/mL,PLASMA,27.0,Plasma,PLASMA,,205.0,TREATMENT PERIOD 2,25.0,Treatment period 2,TRTPR2,2012-11-08T08:15:00,10.0,0.25 HOURS POST DOSE,2.0,PT0.25H,DOSE,2012-11-08T08:00,1667980800.0,0.25,,0.25,A,117,OK,2012-10-30T08:00,2012-11-12,1668297600.0,25.0,25.0,YEARS,349.0,Years,YEARS,F,F,CAUCASIAN,CA,,HISPANIC OR LATINO,HIS,ABC,A / B /C,HISPANIC OR LATINO,100.0,CAUCASIAN,10.0,F,2.0,ABC,A / B /C,,,25/F/Ca,MOON/1001023,1.0,1.0,Y,Y,N,1.0,1.0,5.397605346934028e-79,19296.0,19296.0,C,C,3.0,3.0,1667203200.0,1667980800.0,28800.0,19305.0,19296.0,A / B /C,A / B /C,19309.0,PCCONC,PK concentration (ng/mL),DRUG ANAL 1 Plasma,PC_ANAL 1_NG/ML,2.0,1667980800.0,19305.0,28800.0,1667981700.0,19305.0,29700.0,227.0,227,15.27,GENERAL,5.397605346934028e-79,General,ANALYTE,1.0,Analyte,0.25 HOURS POST DOSE,DOSE,,,,1.0,1.0,C,C,PERIOD 3,3.0,3.0,3.0,C,1.0
139,Study001,Study001_1001023,1001023,1001,7,140.0,117,ng/mL,      25.1,25.100000000000005,ng/mL,PLASMA,27.0,Plasma,PLASMA,,205.0,TREATMENT PERIOD 2,25.0,Treatment period 2,TRTPR2,2012-11-08T08:15:00,10.0,0.25 HOURS POST DOSE,2.0,PT0.25H,DOSE,2012-11-08T08:00,1667980800.0,0.25,,0.25,A,117,OK,2012-10-30T08:00,2012-11-12,1668297600.0,25.0,25.0,YEARS,349.0,Years,YEARS,F,F,CAUCASIAN,CA,,HISPANIC OR LATINO,HIS,ABC,A / B /C,HISPANIC OR LATINO,100.0,CAUCASIAN,10.0,F,2.0,ABC,A / B /C,,,25/F/Ca,MOON/1001023,1.0,1.0,Y,Y,N,1.0,1.0,5.397605346934028e-79,19296.0,19296.0,C,C,3.0,3.0,1667203200.0,1667980800.0,28800.0,19305.0,19296.0,A / B /C,A / B /C,19309.0,PCCONC,PK concentration (ng/mL),DRUG ANAL 2 Plasma,PC_ANAL 2_NG/ML,2.0,1667980800.0,19305.0,28800.0,1667981700.0,19305.0,29700.0,25.100000000000005,      25.1,16.270000000000007,GENERAL,5.397605346934028e-79,General,ANALYTE,1.0,Analyte,0.25 HOURS POST DOSE,DOSE,,,,1.0,1.0,C,C,PERIOD 3,3.0,3.0,3.0,C,1.0
140,Study001,Study001_1001023,1001023,1001,7,141.0,117,ng/mL,550,550.0,ng/mL,PLASMA,27.0,Plasma,PLASMA,,205.0,TREATMENT PERIOD 2,25.0,Treatment period 2,TRTPR2,2012-11-08T08:15:00,10.0,0.25 HOURS POST DOSE,2.0,PT0.25H,DOSE,2012-11-08T08:00,1667980800.0,0.25,,0.25,A,117,OK,2012-10-30T08:00,2012-11-12,1668297600.0,25.0,25.0,YEARS,349.0,Years,YEARS,F,F,CAUCASIAN,CA,,HISPANIC OR LATINO,HIS,ABC,A / B /C,HISPANIC OR LATINO,100.0,CAUCASIAN,10.0,F,2.0,ABC,A / B /C,,,25/F/Ca,MOON/1001023,1.0,1.0,Y,Y,N,1.0,1.0,5.397605346934028e-79,19296.0,19296.0,C,C,3.0,3.0,1667203200.0,1667980800.0,28800.0,19305.0,19296.0,A / B /C,A / B /C,19309.0,PCCONC,PK concentration (ng/mL),DRUG ANAL 3 Plasma,PC_ANAL 3_NG/ML,2.0,1667980800.0,19305.0,28800.0,1667981700.0,19305.0,29700.0,550.0,550,17.270000000000007,GENERAL,5.397605346934028e-79,General,ANALYTE,1.0,Analyte,0.25 HOURS POST DOSE,DOSE,,,,1.0,1.0,C,C,PERIOD 3,3.0,3.0,3.0,C,1.0
141,Study001,Study001_1001023,1001023,1001,7,142.0,118,ng/mL,2140,2140.0,ng/mL,PLASMA,27.0,Plasma,PLASMA,,205.0,TREATMENT PERIOD 2,25.0,Treatment period 2,TRTPR2,2012-11-08T08:30:00,10.0,0.5 HOURS POST DOSE,3.0,PT0.5H,DOSE,2012-11-08T08:00,1667980800.0,0.5,,0.5,A,118,OK,2012-10-30T08:00,2012-11-12,1668297600.0,25.0,25.0,YEARS,349.0,Years,YEARS,F,F,CAUCASIAN,CA,,HISPANIC OR LATINO,HIS,ABC,A / B /C,HISPANIC OR LATINO,100.0,CAUCASIAN,10.0,F,2.0,ABC,A / B /C,,,25/F/Ca,MOON/1001023,1.0,1.0,Y,Y,N,1.0,1.0,5.397605346934028e-79,19296.0,19296.0,C,C,3.0,3.0,1667203200.0,1667980800.0,28800.0,19305.0,19296.0,A / B /C,A / B /C,19309.0,PCCONC,PK concentration (ng/mL),DRUG ANAL 1 Plasma,PC_ANAL 1_NG/ML,3.0,1667980800.0,19305.0,28800.0,1667982600.0,19305.0,30600.0,2140.0,2140,15.27,GENERAL,5.397605346934028e-79,General,ANALYTE,1.0,Analyte,0.5 HOURS POST DOSE,DOSE,,,,1.0,1.0,C,C,PERIOD 3,3.0,3.0,3.0,C,1.0
142,Study001,Study001_1001023,1001023,1001,7,143.0,118,ng/mL,1250,1250.0,ng/mL,PLASMA,27.0,Plasma,PLASMA,,205.0,TREATMENT PERIOD 2,25.0,Treatment period 2,TRTPR2,2012-11-08T08:30:00,10.0,0.5 HOURS POST DOSE,3.0,PT0.5H,DOSE,2012-11-08T08:00,1667980800.0,0.5,,0.5,A,118,OK,2012-10-30T08:00,2012-11-12,1668297600.0,25.0,25.0,YEARS,349.0,Years,YEARS,F,F,CAUCASIAN,CA,,HISPANIC OR LATINO,HIS,ABC,A / B /C,HISPANIC OR LATINO,100.0,CAUCASIAN,10.0,F,2.0,ABC,A / B /C,,,25/F/Ca,MOON/1001023,1.0,1.0,Y,Y,N,1.0,1.0,5.397605346934028e-79,19296.0,19296.0,C,C,3.0,3.0,1667203200.0,1667980800.0,28800.0,19305.0,19296.0,A / B /C,A / B /C,19309.0,PCCONC,PK concentration (ng/mL),DRUG ANAL 2 Plasma,PC_ANAL 2_NG/ML,3.0,1667980800.0,19305.0,28800.0,1667982600.0,19305.0,30600.0,1250.0,1250,16.270000000000007,GENERAL,5.397605346934028e-79,General,ANALYTE,1.0,Analyte,0.5 HOURS POST DOSE,DOSE,,,,1.0,1.0,C,C,PERIOD 3,3.0,3.0,3.0,C,1.0
143,Study001,Study001_1001023,1001023,1001,7,144.0,118,ng/mL,1910,1910.0,ng/mL,PLASMA,27.0,Plasma,PLASMA,,205.0,TREATMENT PERIOD 2,25.0,Treatment period 2,TRTPR2,2012-11-08T08:30:00,10.0,0.5 HOURS POST DOSE,3.0,PT0.5H,DOSE,2012-11-08T08:00,1667980800.0,0.5,,0.5,A,118,OK,2012-10-30T08:00,2012-11-12,1668297600.0,25.0,25.0,YEARS,349.0,Years,YEARS,F,F,CAUCASIAN,CA,,HISPANIC OR LATINO,HIS,ABC,A / B /C,HISPANIC OR LATINO,100.0,CAUCASIAN,10.0,F,2.0,ABC,A / B /C,,,25/F/Ca,MOON/1001023,1.0,1.0,Y,Y,N,1.0,1.0,5.397605346934028e-79,19296.0,19296.0,C,C,3.0,3.0,1667203200.0,1667980800.0,28800.0,19305.0,19296.0,A / B /C,A / B /C,19309.0,PCCONC,PK concentration (ng/mL),DRUG ANAL 3 Plasma,PC_ANAL 3_NG/ML,3.0,1667980800.0,19305.0,28800.0,1667982600.0,19305.0,30600.0,1910.0,1910,17.270000000000007,GENERAL,5.397605346934028e-79,General,ANALYTE,1.0,Analyte,0.5 HOURS POST DOSE,DOSE,,,,1.0,1.0,C,C,PERIOD 3,3.0,3.0,3.0,C,1.0
144,Study001,Study001_1001023,1001023,1001,7,145.0,119,ng/mL,982,982.0,ng/mL,PLASMA,27.0,Plasma,PLASMA,,205.0,TREATMENT PERIOD 2,25.0,Treatment period 2,TRTPR2,2012-11-08T09:02:00,10.0,1 HOURS POST DOSE,4.0,PT1H,DOSE,2012-11-08T08:00,1667980800.0,1,,1.03333333,A,119,OK,2012-10-30T08:00,2012-11-12,1668297600.0,25.0,25.0,YEARS,349.0,Years,YEARS,F,F,CAUCASIAN,CA,,HISPANIC OR LATINO,HIS,ABC,A / B /C,HISPANIC OR LATINO,100.0,CAUCASIAN,10.0,F,2.0,ABC,A / B /C,,,25/F/Ca,MOON/1001023,1.0,1.0,Y,Y,N,1.0,1.0,5.397605346934028e-79,19296.0,19296.0,C,C,3.0,3.0,1667203200.0,1667980800.0,28800.0,19305.0,19296.0,A / B /C,A / B /C,19309.0,PCCONC,PK concentration (ng/mL),DRUG ANAL 1 Plasma,PC_ANAL 1_NG/ML,4.0,1667980800.0,19305.0,28800.0,1667984520.0,19305.0,32520.0,982.0,982,15.27,GENERAL,5.397605346934028e-79,General,ANALYTE,1.0,Analyte,1 HOURS POST DOSE,DOSE,,,,1.0,1.0,C,C,PERIOD 3,3.0,3.0,3.0,C,1.0
145,Study001,Study001_1001023,1001023,1001,7,146.0,119,ng/mL,9950,9950.0,ng/mL,PLASMA,27.0,Plasma,PLASMA,,205.0,TREATMENT PERIOD 2,25.0,Treatment period 2,TRTPR2,2012-11-08T09:02:00,10.0,1 HOURS POST DOSE,4.0,PT1H,DOSE,2012-11-08T08:00,1667980800.0,1,,1.03333333,A,119,OK,2012-10-30T08:00,2012-11-12,1668297600.0,25.0,25.0,YEARS,349.0,Years,YEARS,F,F,CAUCASIAN,CA,,HISPANIC OR LATINO,HIS,ABC,A / B /C,HISPANIC OR LATINO,100.0,CAUCASIAN,10.0,F,2.0,ABC,A / B /C,,,25/F/Ca,MOON/1001023,1.0,1.0,Y,Y,N,1.0,1.0,5.397605346934028e-79,19296.0,19296.0,C,C,3.0,3.0,1667203200.0,1667980800.0,28800.0,19305.0,19296.0,A / B /C,A / B /C,19309.0,PCCONC,PK concentration (ng/mL),DRUG ANAL 2 Plasma,PC_ANAL 2_NG/ML,4.0,1667980800.0,19305.0,28800.0,1667984520.0,19305.0,32520.0,9950.0,9950,16.270000000000007,GENERAL,5.397605346934028e-79,General,ANALYTE,1.0,Analyte,1 HOURS POST DOSE,DOSE,,,,1.0,1.0,C,C,PERIOD 3,3.0,3.0,3.0,C,1.0
146,Study001,Study001_1001023,1001023,1001,7,147.0,119,ng/mL,3360,3360.0,ng/mL,PLASMA,27.0,Plasma,PLASMA,,205.0,TREATMENT PERIOD 2,25.0,Treatment period 2,TRTPR2,2012-11-08T09:02:00,10.0,1 HOURS POST DOSE,4.0,PT1H,DOSE,2012-11-08T08:00,1667980800.0,1,,1.03333333,A,119,OK,2012-10-30T08:00,2012-11-12,1668297600.0,25.0,25.0,YEARS,349.0,Years,YEARS,F,F,CAUCASIAN,CA,,HISPANIC OR LATINO,HIS,ABC,A / B /C,HISPANIC OR LATINO,100.0,CAUCASIAN,10.0,F,2.0,ABC,A / B /C,,,25/F/Ca,MOON/1001023,1.0,1.0,Y,Y,N,1.0,1.0,5.397605346934028e-79,19296.0,19296.0,C,C,3.0,3.0,1667203200.0,1667980800.0,28800.0,19305.0,19296.0,A / B /C,A / B /C,19309.0,PCCONC,PK concentration (ng/mL),DRUG ANAL 3 Plasma,PC_ANAL 3_NG/ML,4.0,1667980800.0,19305.0,28800.0,1667984520.0,19305.0,32520.0,3360.0,3360,17.270000000000007,GENERAL,5.397605346934028e-79,General,ANALYTE,1.0,Analyte,1 HOURS POST DOSE,DOSE,,,,1.0,1.0,C,C,PERIOD 3,3.0,3.0,3.0,C,1.0
147,Study001,Study001_1001023,1001023,1001,7,148.0,120,ng/mL,473,473.0,ng/mL,PLASMA,27.0,Plasma,PLASMA,,205.0,TREATMENT PERIOD 2,25.0,Treatment period 2,TRTPR2,2012-11-08T09:30:00,10.0,1.5 HOURS POST DOSE,5.0,PT1.5H,DOSE,2012-11-08T08:00,1667980800.0,1.5,,1.5,A,120,OK,2012-10-30T08:00,2012-11-12,1668297600.0,25.0,25.0,YEARS,349.0,Years,YEARS,F,F,CAUCASIAN,CA,,HISPANIC OR LATINO,HIS,ABC,A / B /C,HISPANIC OR LATINO,100.0,CAUCASIAN,10.0,F,2.0,ABC,A / B /C,,,25/F/Ca,MOON/1001023,1.0,1.0,Y,Y,N,1.0,1.0,5.397605346934028e-79,19296.0,19296.0,C,C,3.0,3.0,1667203200.0,1667980800.0,28800.0,19305.0,19296.0,A / B /C,A / B /C,19309.0,PCCONC,PK concentration (ng/mL),DRUG ANAL 1 Plasma,PC_ANAL 1_NG/ML,5.0,1667980800.0,19305.0,28800.0,1667986200.0,19305.0,34200.0,473.0,473,15.27,GENERAL,5.397605346934028e-79,General,ANALYTE,1.0,Analyte,1.5 HOURS POST DOSE,DOSE,,,,1.0,1.0,C,C,PERIOD 3,3.0,3.0,3.0,C,1.0
148,Study001,Study001_1001023,1001023,1001,7,149.0,120,ng/mL,13200,13200.0,ng/mL,PLASMA,27.0,Plasma,PLASMA,,205.0,TREATMENT PERIOD 2,25.0,Treatment period 2,TRTPR2,2012-11-08T09:30:00,10.0,1.5 HOURS POST DOSE,5.0,PT1.5H,DOSE,2012-11-08T08:00,1667980800.0,1.5,,1.5,A,120,OK,2012-10-30T08:00,2012-11-12,1668297600.0,25.0,25.0,YEARS,349.0,Years,YEARS,F,F,CAUCASIAN,CA,,HISPANIC OR LATINO,HIS,ABC,A / B /C,HISPANIC OR LATINO,100.0,CAUCASIAN,10.0,F,2.0,ABC,A / B /C,,,25/F/Ca,MOON/1001023,1.0,1.0,Y,Y,N,1.0,1.0,5.397605346934028e-79,19296.0,19296.0,C,C,3.0,3.0,1667203200.0,1667980800.0,28800.0,19305.0,19296.0,A / B /C,A / B /C,19309.0,PCCONC,PK concentration (ng/mL),DRUG ANAL 2 Plasma,PC_ANAL 2_NG/ML,5.0,1667980800.0,19305.0,28800.0,1667986200.0,19305.0,34200.0,13200.0,13200,16.270000000000007,GENERAL,5.397605346934028e-79,General,ANALYTE,1.0,Analyte,1.5 HOURS POST DOSE,DOSE,,,,1.0,1.0,C,C,PERIOD 3,3.0,3.0,3.0,C,1.0
149,Study001,Study001_1001023,1001023,1001,7,150.0,120,ng/mL,3220,3220.0,ng/mL,PLASMA,27.0,Plasma,PLASMA,,205.0,TREATMENT PERIOD 2,25.0,Treatment period 2,TRTPR2,2012-11-08T09:30:00,10.0,1.5 HOURS POST DOSE,5.0,PT1.5H,DOSE,2012-11-08T08:00,1667980800.0,1.5,,1.5,A,120,OK,2012-10-30T08:00,2012-11-12,1668297600.0,25.0,25.0,YEARS,349.0,Years,YEARS,F,F,CAUCASIAN,CA,,HISPANIC OR LATINO,HIS,ABC,A / B /C,HISPANIC OR LATINO,100.0,CAUCASIAN,10.0,F,2.0,ABC,A / B /C,,,25/F/Ca,MOON/1001023,1.0,1.0,Y,Y,N,1.0,1.0,5.397605346934028e-79,19296.0,19296.0,C,C,3.0,3.0,1667203200.0,1667980800.0,28800.0,19305.0,19296.0,A / B /C,A / B /C,19309.0,PCCONC,PK concentration (ng/mL),DRUG ANAL 3 Plasma,PC_ANAL 3_NG/ML,5.0,1667980800.0,19305.0,28800.0,1667986200.0,19305.0,34200.0,3220.0,3220,17.270000000000007,GENERAL,5.397605346934028e-79,General,ANALYTE,1.0,Analyte,1.5 HOURS POST DOSE,DOSE,,,,1.0,1.0,C,C,PERIOD 3,3.0,3.0,3.0,C,1.0
150,Study001,Study001_1001023,1001023,1001,7,151.0,121,ng/mL,954,954.0,ng/mL,PLASMA,27.0,Plasma,PLASMA,,205.0,TREATMENT PERIOD 2,25.0,Treatment period 2,TRTPR2,2012-11-08T10:01:00,10.0,2 HOURS POST DOSE,6.0,PT2H,DOSE,2012-11-08T08:00,1667980800.0,2,,2.01666666,A,121,OK,2012-10-30T08:00,2012-11-12,1668297600.0,25.0,25.0,YEARS,349.0,Years,YEARS,F,F,CAUCASIAN,CA,,HISPANIC OR LATINO,HIS,ABC,A / B /C,HISPANIC OR LATINO,100.0,CAUCASIAN,10.0,F,2.0,ABC,A / B /C,,,25/F/Ca,MOON/1001023,1.0,1.0,Y,Y,N,1.0,1.0,5.397605346934028e-79,19296.0,19296.0,C,C,3.0,3.0,1667203200.0,1667980800.0,28800.0,19305.0,19296.0,A / B /C,A / B /C,19309.0,PCCONC,PK concentration (ng/mL),DRUG ANAL 1 Plasma,PC_ANAL 1_NG/ML,6.0,1667980800.0,19305.0,28800.0,1667988060.0,19305.0,36060.0,954.0,954,15.27,GENERAL,5.397605346934028e-79,General,ANALYTE,1.0,Analyte,2 HOURS POST DOSE,DOSE,,,,1.0,1.0,C,C,PERIOD 3,3.0,3.0,3.0,C,1.0
151,Study001,Study001_1001023,1001023,1001,7,152.0,121,ng/mL,13600,13600.0,ng/mL,PLASMA,27.0,Plasma,PLASMA,,205.0,TREATMENT PERIOD 2,25.0,Treatment period 2,TRTPR2,2012-11-08T10:01:00,10.0,2 HOURS POST DOSE,6.0,PT2H,DOSE,2012-11-08T08:00,1667980800.0,2,,2.01666666,A,121,OK,2012-10-30T08:00,2012-11-12,1668297600.0,25.0,25.0,YEARS,349.0,Years,YEARS,F,F,CAUCASIAN,CA,,HISPANIC OR LATINO,HIS,ABC,A / B /C,HISPANIC OR LATINO,100.0,CAUCASIAN,10.0,F,2.0,ABC,A / B /C,,,25/F/Ca,MOON/1001023,1.0,1.0,Y,Y,N,1.0,1.0,5.397605346934028e-79,19296.0,19296.0,C,C,3.0,3.0,1667203200.0,1667980800.0,28800.0,19305.0,19296.0,A / B /C,A / B /C,19309.0,PCCONC,PK concentration (ng/mL),DRUG ANAL 2 Plasma,PC_ANAL 2_NG/ML,6.0,1667980800.0,19305.0,28800.0,1667988060.0,19305.0,36060.0,13600.0,13600,16.270000000000007,GENERAL,5.397605346934028e-79,General,ANALYTE,1.0,Analyte,2 HOURS POST DOSE,DOSE,,,,1.0,1.0,C,C,PERIOD 3,3.0,3.0,3.0,C,1.0
152,Study001,Study001_1001023,1001023,1001,7,153.0,121,ng/mL,3040,3040.0,ng/mL,PLASMA,27.0,Plasma,PLASMA,,205.0,TREATMENT PERIOD 2,25.0,Treatment period 2,TRTPR2,2012-11-08T10:01:00,10.0,2 HOURS POST DOSE,6.0,PT2H,DOSE,2012-11-08T08:00,1667980800.0,2,,2.01666666,A,121,OK,2012-10-30T08:00,2012-11-12,1668297600.0,25.0,25.0,YEARS,349.0,Years,YEARS,F,F,CAUCASIAN,CA,,HISPANIC OR LATINO,HIS,ABC,A / B /C,HISPANIC OR LATINO,100.0,CAUCASIAN,10.0,F,2.0,ABC,A / B /C,,,25/F/Ca,MOON/1001023,1.0,1.0,Y,Y,N,1.0,1.0,5.397605346934028e-79,19296.0,19296.0,C,C,3.0,3.0,1667203200.0,1667980800.0,28800.0,19305.0,19296.0,A / B /C,A / B /C,19309.0,PCCONC,PK concentration (ng/mL),DRUG ANAL 3 Plasma,PC_ANAL 3_NG/ML,6.0,1667980800.0,19305.0,28800.0,1667988060.0,19305.0,36060.0,3040.0,3040,17.270000000000007,GENERAL,5.397605346934028e-79,General,ANALYTE,1.0,Analyte,2 HOURS POST DOSE,DOSE,,,,1.0,1.0,C,C,PERIOD 3,3.0,3.0,3.0,C,1.0
153,Study001,Study001_1001023,1001023,1001,7,154.0,122,ng/mL,138,138.0,ng/mL,PLASMA,27.0,Plasma,PLASMA,,205.0,TREATMENT PERIOD 2,25.0,Treatment period 2,TRTPR2,2012-11-08T11:00:00,10.0,3 HOURS POST DOSE,7.0,PT3H,DOSE,2012-11-08T08:00,1667980800.0,3,,3,A,122,OK,2012-10-30T08:00,2012-11-12,1668297600.0,25.0,25.0,YEARS,349.0,Years,YEARS,F,F,CAUCASIAN,CA,,HISPANIC OR LATINO,HIS,ABC,A / B /C,HISPANIC OR LATINO,100.0,CAUCASIAN,10.0,F,2.0,ABC,A / B /C,,,25/F/Ca,MOON/1001023,1.0,1.0,Y,Y,N,1.0,1.0,5.397605346934028e-79,19296.0,19296.0,C,C,3.0,3.0,1667203200.0,1667980800.0,28800.0,19305.0,19296.0,A / B /C,A / B /C,19309.0,PCCONC,PK concentration (ng/mL),DRUG ANAL 1 Plasma,PC_ANAL 1_NG/ML,7.0,1667980800.0,19305.0,28800.0,1667991600.0,19305.0,39600.0,138.0,138,15.27,GENERAL,5.397605346934028e-79,General,ANALYTE,1.0,Analyte,3 HOURS POST DOSE,DOSE,,,,1.0,1.0,C,C,PERIOD 3,3.0,3.0,3.0,C,1.0
154,Study001,Study001_1001023,1001023,1001,7,155.0,122,ng/mL,14300,14300.0,ng/mL,PLASMA,27.0,Plasma,PLASMA,,205.0,TREATMENT PERIOD 2,25.0,Treatment period 2,TRTPR2,2012-11-08T11:00:00,10.0,3 HOURS POST DOSE,7.0,PT3H,DOSE,2012-11-08T08:00,1667980800.0,3,,3,A,122,OK,2012-10-30T08:00,2012-11-12,1668297600.0,25.0,25.0,YEARS,349.0,Years,YEARS,F,F,CAUCASIAN,CA,,HISPANIC OR LATINO,HIS,ABC,A / B /C,HISPANIC OR LATINO,100.0,CAUCASIAN,10.0,F,2.0,ABC,A / B /C,,,25/F/Ca,MOON/1001023,1.0,1.0,Y,Y,N,1.0,1.0,5.397605346934028e-79,19296.0,19296.0,C,C,3.0,3.0,1667203200.0,1667980800.0,28800.0,19305.0,19296.0,A / B /C,A / B /C,19309.0,PCCONC,PK concentration (ng/mL),DRUG ANAL 2 Plasma,PC_ANAL 2_NG/ML,7.0,1667980800.0,19305.0,28800.0,1667991600.0,19305.0,39600.0,14300.0,14300,16.270000000000007,GENERAL,5.397605346934028e-79,General,ANALYTE,1.0,Analyte,3 HOURS POST DOSE,DOSE,,,,1.0,1.0,C,C,PERIOD 3,3.0,3.0,3.0,C,1.0
155,Study001,Study001_1001023,1001023,1001,7,156.0,122,ng/mL,3380,3380.0,ng/mL,PLASMA,27.0,Plasma,PLASMA,,205.0,TREATMENT PERIOD 2,25.0,Treatment period 2,TRTPR2,2012-11-08T11:00:00,10.0,3 HOURS POST DOSE,7.0,PT3H,DOSE,2012-11-08T08:00,1667980800.0,3,,3,A,122,OK,2012-10-30T08:00,2012-11-12,1668297600.0,25.0,25.0,YEARS,349.0,Years,YEARS,F,F,CAUCASIAN,CA,,HISPANIC OR LATINO,HIS,ABC,A / B /C,HISPANIC OR LATINO,100.0,CAUCASIAN,10.0,F,2.0,ABC,A / B /C,,,25/F/Ca,MOON/1001023,1.0,1.0,Y,Y,N,1.0,1.0,5.397605346934028e-79,19296.0,19296.0,C,C,3.0,3.0,1667203200.0,1667980800.0,28800.0,19305.0,19296.0,A / B /C,A / B /C,19309.0,PCCONC,PK concentration (ng/mL),DRUG ANAL 3 Plasma,PC_ANAL 3_NG/ML,7.0,1667980800.0,19305.0,28800.0,1667991600.0,19305.0,39600.0,3380.0,3380,17.270000000000007,GENERAL,5.397605346934028e-79,General,ANALYTE,1.0,Analyte,3 HOURS POST DOSE,DOSE,,,,1.0,1.0,C,C,PERIOD 3,3.0,3.0,3.0,C,1.0
156,Study001,Study001_1001023,1001023,1001,7,157.0,123,ng/mL,      28.9,28.900000000000002,ng/mL,PLASMA,27.0,Plasma,PLASMA,,205.0,TREATMENT PERIOD 2,25.0,Treatment period 2,TRTPR2,2012-11-08T12:00:00,10.0,4 HOURS POST DOSE,8.0,PT4H,DOSE,2012-11-08T08:00,1667980800.0,4,,4,A,123,OK,2012-10-30T08:00,2012-11-12,1668297600.0,25.0,25.0,YEARS,349.0,Years,YEARS,F,F,CAUCASIAN,CA,,HISPANIC OR LATINO,HIS,ABC,A / B /C,HISPANIC OR LATINO,100.0,CAUCASIAN,10.0,F,2.0,ABC,A / B /C,,,25/F/Ca,MOON/1001023,1.0,1.0,Y,Y,N,1.0,1.0,5.397605346934028e-79,19296.0,19296.0,C,C,3.0,3.0,1667203200.0,1667980800.0,28800.0,19305.0,19296.0,A / B /C,A / B /C,19309.0,PCCONC,PK concentration (ng/mL),DRUG ANAL 1 Plasma,PC_ANAL 1_NG/ML,8.0,1667980800.0,19305.0,28800.0,1667995200.0,19305.0,43200.0,28.900000000000002,      28.9,15.27,GENERAL,5.397605346934028e-79,General,ANALYTE,1.0,Analyte,4 HOURS POST DOSE,DOSE,,,,1.0,1.0,C,C,PERIOD 3,3.0,3.0,3.0,C,1.0
157,Study001,Study001_1001023,1001023,1001,7,158.0,123,ng/mL,11100,11100.0,ng/mL,PLASMA,27.0,Plasma,PLASMA,,205.0,TREATMENT PERIOD 2,25.0,Treatment period 2,TRTPR2,2012-11-08T12:00:00,10.0,4 HOURS POST DOSE,8.0,PT4H,DOSE,2012-11-08T08:00,1667980800.0,4,,4,A,123,OK,2012-10-30T08:00,2012-11-12,1668297600.0,25.0,25.0,YEARS,349.0,Years,YEARS,F,F,CAUCASIAN,CA,,HISPANIC OR LATINO,HIS,ABC,A / B /C,HISPANIC OR LATINO,100.0,CAUCASIAN,10.0,F,2.0,ABC,A / B /C,,,25/F/Ca,MOON/1001023,1.0,1.0,Y,Y,N,1.0,1.0,5.397605346934028e-79,19296.0,19296.0,C,C,3.0,3.0,1667203200.0,1667980800.0,28800.0,19305.0,19296.0,A / B /C,A / B /C,19309.0,PCCONC,PK concentration (ng/mL),DRUG ANAL 2 Plasma,PC_ANAL 2_NG/ML,8.0,1667980800.0,19305.0,28800.0,1667995200.0,19305.0,43200.0,11100.0,11100,16.270000000000007,GENERAL,5.397605346934028e-79,General,ANALYTE,1.0,Analyte,4 HOURS POST DOSE,DOSE,,,,1.0,1.0,C,C,PERIOD 3,3.0,3.0,3.0,C,1.0
158,Study001,Study001_1001023,1001023,1001,7,159.0,123,ng/mL,2520,2520.0,ng/mL,PLASMA,27.0,Plasma,PLASMA,,205.0,TREATMENT PERIOD 2,25.0,Treatment period 2,TRTPR2,2012-11-08T12:00:00,10.0,4 HOURS POST DOSE,8.0,PT4H,DOSE,2012-11-08T08:00,1667980800.0,4,,4,A,123,OK,2012-10-30T08:00,2012-11-12,1668297600.0,25.0,25.0,YEARS,349.0,Years,YEARS,F,F,CAUCASIAN,CA,,HISPANIC OR LATINO,HIS,ABC,A / B /C,HISPANIC OR LATINO,100.0,CAUCASIAN,10.0,F,2.0,ABC,A / B /C,,,25/F/Ca,MOON/1001023,1.0,1.0,Y,Y,N,1.0,1.0,5.397605346934028e-79,19296.0,19296.0,C,C,3.0,3.0,1667203200.0,1667980800.0,28800.0,19305.0,19296.0,A / B /C,A / B /C,19309.0,PCCONC,PK concentration (ng/mL),DRUG ANAL 3 Plasma,PC_ANAL 3_NG/ML,8.0,1667980800.0,19305.0,28800.0,1667995200.0,19305.0,43200.0,2520.0,2520,17.270000000000007,GENERAL,5.397605346934028e-79,General,ANALYTE,1.0,Analyte,4 HOURS POST DOSE,DOSE,,,,1.0,1.0,C,C,PERIOD 3,3.0,3.0,3.0,C,1.0
159,Study001,Study001_1001023,1001023,1001,7,160.0,124,ng/mL,      6.06,6.0600000000000005,ng/mL,PLASMA,27.0,Plasma,PLASMA,,205.0,TREATMENT PERIOD 2,25.0,Treatment period 2,TRTPR2,2012-11-08T14:00:00,10.0,6 HOURS POST DOSE,9.0,PT6H,DOSE,2012-11-08T08:00,1667980800.0,6,,6,A,124,OK,2012-10-30T08:00,2012-11-12,1668297600.0,25.0,25.0,YEARS,349.0,Years,YEARS,F,F,CAUCASIAN,CA,,HISPANIC OR LATINO,HIS,ABC,A / B /C,HISPANIC OR LATINO,100.0,CAUCASIAN,10.0,F,2.0,ABC,A / B /C,,,25/F/Ca,MOON/1001023,1.0,1.0,Y,Y,N,1.0,1.0,5.397605346934028e-79,19296.0,19296.0,C,C,3.0,3.0,1667203200.0,1667980800.0,28800.0,19305.0,19296.0,A / B /C,A / B /C,19309.0,PCCONC,PK concentration (ng/mL),DRUG ANAL 1 Plasma,PC_ANAL 1_NG/ML,9.0,1667980800.0,19305.0,28800.0,1668002400.0,19305.0,50400.0,6.0600000000000005,      6.06,15.27,GENERAL,5.397605346934028e-79,General,ANALYTE,1.0,Analyte,6 HOURS POST DOSE,DOSE,,,,1.0,1.0,C,C,PERIOD 3,3.0,3.0,3.0,C,1.0
160,Study001,Study001_1001023,1001023,1001,7,161.0,124,ng/mL,7440,7440.0,ng/mL,PLASMA,27.0,Plasma,PLASMA,,205.0,TREATMENT PERIOD 2,25.0,Treatment period 2,TRTPR2,2012-11-08T14:00:00,10.0,6 HOURS POST DOSE,9.0,PT6H,DOSE,2012-11-08T08:00,1667980800.0,6,,6,A,124,OK,2012-10-30T08:00,2012-11-12,1668297600.0,25.0,25.0,YEARS,349.0,Years,YEARS,F,F,CAUCASIAN,CA,,HISPANIC OR LATINO,HIS,ABC,A / B /C,HISPANIC OR LATINO,100.0,CAUCASIAN,10.0,F,2.0,ABC,A / B /C,,,25/F/Ca,MOON/1001023,1.0,1.0,Y,Y,N,1.0,1.0,5.397605346934028e-79,19296.0,19296.0,C,C,3.0,3.0,1667203200.0,1667980800.0,28800.0,19305.0,19296.0,A / B /C,A / B /C,19309.0,PCCONC,PK concentration (ng/mL),DRUG ANAL 2 Plasma,PC_ANAL 2_NG/ML,9.0,1667980800.0,19305.0,28800.0,1668002400.0,19305.0,50400.0,7440.0,7440,16.270000000000007,GENERAL,5.397605346934028e-79,General,ANALYTE,1.0,Analyte,6 HOURS POST DOSE,DOSE,,,,1.0,1.0,C,C,PERIOD 3,3.0,3.0,3.0,C,1.0
161,Study001,Study001_1001023,1001023,1001,7,162.0,124,ng/mL,1060,1060.0,ng/mL,PLASMA,27.0,Plasma,PLASMA,,205.0,TREATMENT PERIOD 2,25.0,Treatment period 2,TRTPR2,2012-11-08T14:00:00,10.0,6 HOURS POST DOSE,9.0,PT6H,DOSE,2012-11-08T08:00,1667980800.0,6,,6,A,124,OK,2012-10-30T08:00,2012-11-12,1668297600.0,25.0,25.0,YEARS,349.0,Years,YEARS,F,F,CAUCASIAN,CA,,HISPANIC OR LATINO,HIS,ABC,A / B /C,HISPANIC OR LATINO,100.0,CAUCASIAN,10.0,F,2.0,ABC,A / B /C,,,25/F/Ca,MOON/1001023,1.0,1.0,Y,Y,N,1.0,1.0,5.397605346934028e-79,19296.0,19296.0,C,C,3.0,3.0,1667203200.0,1667980800.0,28800.0,19305.0,19296.0,A / B /C,A / B /C,19309.0,PCCONC,PK concentration (ng/mL),DRUG ANAL 3 Plasma,PC_ANAL 3_NG/ML,9.0,1667980800.0,19305.0,28800.0,1668002400.0,19305.0,50400.0,1060.0,1060,17.270000000000007,GENERAL,5.397605346934028e-79,General,ANALYTE,1.0,Analyte,6 HOURS POST DOSE,DOSE,,,,1.0,1.0,C,C,PERIOD 3,3.0,3.0,3.0,C,1.0
162,Study001,Study001_1001023,1001023,1001,7,163.0,125,ng/mL,      3.16,3.16,ng/mL,PLASMA,27.0,Plasma,PLASMA,,205.0,TREATMENT PERIOD 2,25.0,Treatment period 2,TRTPR2,2012-11-08T16:00:00,10.0,8 HOURS POST DOSE,10.0,PT8H,DOSE,2012-11-08T08:00,1667980800.0,8,,8,A,125,OK,2012-10-30T08:00,2012-11-12,1668297600.0,25.0,25.0,YEARS,349.0,Years,YEARS,F,F,CAUCASIAN,CA,,HISPANIC OR LATINO,HIS,ABC,A / B /C,HISPANIC OR LATINO,100.0,CAUCASIAN,10.0,F,2.0,ABC,A / B /C,,,25/F/Ca,MOON/1001023,1.0,1.0,Y,Y,N,1.0,1.0,5.397605346934028e-79,19296.0,19296.0,C,C,3.0,3.0,1667203200.0,1667980800.0,28800.0,19305.0,19296.0,A / B /C,A / B /C,19309.0,PCCONC,PK concentration (ng/mL),DRUG ANAL 1 Plasma,PC_ANAL 1_NG/ML,10.0,1667980800.0,19305.0,28800.0,1668009600.0,19305.0,57600.0,3.16,      3.16,15.27,GENERAL,5.397605346934028e-79,General,ANALYTE,1.0,Analyte,8 HOURS POST DOSE,DOSE,,,,1.0,1.0,C,C,PERIOD 3,3.0,3.0,3.0,C,1.0
163,Study001,Study001_1001023,1001023,1001,7,164.0,125,ng/mL,5110,5110.0,ng/mL,PLASMA,27.0,Plasma,PLASMA,,205.0,TREATMENT PERIOD 2,25.0,Treatment period 2,TRTPR2,2012-11-08T16:00:00,10.0,8 HOURS POST DOSE,10.0,PT8H,DOSE,2012-11-08T08:00,1667980800.0,8,,8,A,125,OK,2012-10-30T08:00,2012-11-12,1668297600.0,25.0,25.0,YEARS,349.0,Years,YEARS,F,F,CAUCASIAN,CA,,HISPANIC OR LATINO,HIS,ABC,A / B /C,HISPANIC OR LATINO,100.0,CAUCASIAN,10.0,F,2.0,ABC,A / B /C,,,25/F/Ca,MOON/1001023,1.0,1.0,Y,Y,N,1.0,1.0,5.397605346934028e-79,19296.0,19296.0,C,C,3.0,3.0,1667203200.0,1667980800.0,28800.0,19305.0,19296.0,A / B /C,A / B /C,19309.0,PCCONC,PK concentration (ng/mL),DRUG ANAL 2 Plasma,PC_ANAL 2_NG/ML,10.0,1667980800.0,19305.0,28800.0,1668009600.0,19305.0,57600.0,5110.0,5110,16.270000000000007,GENERAL,5.397605346934028e-79,General,ANALYTE,1.0,Analyte,8 HOURS POST DOSE,DOSE,,,,1.0,1.0,C,C,PERIOD 3,3.0,3.0,3.0,C,1.0
164,Study001,Study001_1001023,1001023,1001,7,165.0,125,ng/mL,607,607.0,ng/mL,PLASMA,27.0,Plasma,PLASMA,,205.0,TREATMENT PERIOD 2,25.0,Treatment period 2,TRTPR2,2012-11-08T16:00:00,10.0,8 HOURS POST DOSE,10.0,PT8H,DOSE,2012-11-08T08:00,1667980800.0,8,,8,A,125,OK,2012-10-30T08:00,2012-11-12,1668297600.0,25.0,25.0,YEARS,349.0,Years,YEARS,F,F,CAUCASIAN,CA,,HISPANIC OR LATINO,HIS,ABC,A / B /C,HISPANIC OR LATINO,100.0,CAUCASIAN,10.0,F,2.0,ABC,A / B /C,,,25/F/Ca,MOON/1001023,1.0,1.0,Y,Y,N,1.0,1.0,5.397605346934028e-79,19296.0,19296.0,C,C,3.0,3.0,1667203200.0,1667980800.0,28800.0,19305.0,19296.0,A / B /C,A / B /C,19309.0,PCCONC,PK concentration (ng/mL),DRUG ANAL 3 Plasma,PC_ANAL 3_NG/ML,10.0,1667980800.0,19305.0,28800.0,1668009600.0,19305.0,57600.0,607.0,607,17.270000000000007,GENERAL,5.397605346934028e-79,General,ANALYTE,1.0,Analyte,8 HOURS POST DOSE,DOSE,,,,1.0,1.0,C,C,PERIOD 3,3.0,3.0,3.0,C,1.0
165,Study001,Study001_1001023,1001023,1001,7,166.0,126,ng/mL,      1.08,1.0800000000000014,ng/mL,PLASMA,27.0,Plasma,PLASMA,,205.0,TREATMENT PERIOD 2,25.0,Treatment period 2,TRTPR2,2012-11-08T20:00:00,10.0,12 HOURS POST DOSE,11.0,PT12H,DOSE,2012-11-08T08:00,1667980800.0,12,,12,A,126,OK,2012-10-30T08:00,2012-11-12,1668297600.0,25.0,25.0,YEARS,349.0,Years,YEARS,F,F,CAUCASIAN,CA,,HISPANIC OR LATINO,HIS,ABC,A / B /C,HISPANIC OR LATINO,100.0,CAUCASIAN,10.0,F,2.0,ABC,A / B /C,,,25/F/Ca,MOON/1001023,1.0,1.0,Y,Y,N,1.0,1.0,5.397605346934028e-79,19296.0,19296.0,C,C,3.0,3.0,1667203200.0,1667980800.0,28800.0,19305.0,19296.0,A / B /C,A / B /C,19309.0,PCCONC,PK concentration (ng/mL),DRUG ANAL 1 Plasma,PC_ANAL 1_NG/ML,11.0,1667980800.0,19305.0,28800.0,1668024000.0,19305.0,72000.0,1.0800000000000014,      1.08,15.27,GENERAL,5.397605346934028e-79,General,ANALYTE,1.0,Analyte,12 HOURS POST DOSE,DOSE,,,,1.0,1.0,C,C,PERIOD 3,3.0,3.0,3.0,C,1.0
166,Study001,Study001_1001023,1001023,1001,7,167.0,126,ng/mL,2820,2820.0,ng/mL,PLASMA,27.0,Plasma,PLASMA,,205.0,TREATMENT PERIOD 2,25.0,Treatment period 2,TRTPR2,2012-11-08T20:00:00,10.0,12 HOURS POST DOSE,11.0,PT12H,DOSE,2012-11-08T08:00,1667980800.0,12,,12,A,126,OK,2012-10-30T08:00,2012-11-12,1668297600.0,25.0,25.0,YEARS,349.0,Years,YEARS,F,F,CAUCASIAN,CA,,HISPANIC OR LATINO,HIS,ABC,A / B /C,HISPANIC OR LATINO,100.0,CAUCASIAN,10.0,F,2.0,ABC,A / B /C,,,25/F/Ca,MOON/1001023,1.0,1.0,Y,Y,N,1.0,1.0,5.397605346934028e-79,19296.0,19296.0,C,C,3.0,3.0,1667203200.0,1667980800.0,28800.0,19305.0,19296.0,A / B /C,A / B /C,19309.0,PCCONC,PK concentration (ng/mL),DRUG ANAL 2 Plasma,PC_ANAL 2_NG/ML,11.0,1667980800.0,19305.0,28800.0,1668024000.0,19305.0,72000.0,2820.0,2820,16.270000000000007,GENERAL,5.397605346934028e-79,General,ANALYTE,1.0,Analyte,12 HOURS POST DOSE,DOSE,,,,1.0,1.0,C,C,PERIOD 3,3.0,3.0,3.0,C,1.0
167,Study001,Study001_1001023,1001023,1001,7,168.0,126,ng/mL,285,285.0,ng/mL,PLASMA,27.0,Plasma,PLASMA,,205.0,TREATMENT PERIOD 2,25.0,Treatment period 2,TRTPR2,2012-11-08T20:00:00,10.0,12 HOURS POST DOSE,11.0,PT12H,DOSE,2012-11-08T08:00,1667980800.0,12,,12,A,126,OK,2012-10-30T08:00,2012-11-12,1668297600.0,25.0,25.0,YEARS,349.0,Years,YEARS,F,F,CAUCASIAN,CA,,HISPANIC OR LATINO,HIS,ABC,A / B /C,HISPANIC OR LATINO,100.0,CAUCASIAN,10.0,F,2.0,ABC,A / B /C,,,25/F/Ca,MOON/1001023,1.0,1.0,Y,Y,N,1.0,1.0,5.397605346934028e-79,19296.0,19296.0,C,C,3.0,3.0,1667203200.0,1667980800.0,28800.0,19305.0,19296.0,A / B /C,A / B /C,19309.0,PCCONC,PK concentration (ng/mL),DRUG ANAL 3 Plasma,PC_ANAL 3_NG/ML,11.0,1667980800.0,19305.0,28800.0,1668024000.0,19305.0,72000.0,285.0,285,17.270000000000007,GENERAL,5.397605346934028e-79,General,ANALYTE,1.0,Analyte,12 HOURS POST DOSE,DOSE,,,,1.0,1.0,C,C,PERIOD 3,3.0,3.0,3.0,C,1.0
168,Study001,Study001_1001023,1001023,1001,7,169.0,127,ng/mL,0,5.397605346934028e-79,ng/mL,PLASMA,27.0,Plasma,PLASMA,1.0,206.0,TREATMENT PERIOD 2,25.0,Treatment period 2,TRTPR2,2012-11-09T08:00:00,11.0,24 HOURS POST DOSE,12.0,PT24H,DOSE,2012-11-08T08:00,1667980800.0,24,,24,A,127,OK,2012-10-30T08:00,2012-11-12,1668297600.0,25.0,25.0,YEARS,349.0,Years,YEARS,F,F,CAUCASIAN,CA,,HISPANIC OR LATINO,HIS,ABC,A / B /C,HISPANIC OR LATINO,100.0,CAUCASIAN,10.0,F,2.0,ABC,A / B /C,,,25/F/Ca,MOON/1001023,1.0,1.0,Y,Y,N,1.0,1.0,5.397605346934028e-79,19296.0,19296.0,C,C,3.0,3.0,1667203200.0,1667980800.0,28800.0,19305.0,19296.0,A / B /C,A / B /C,19309.0,PCCONC,PK concentration (ng/mL),DRUG ANAL 1 Plasma,PC_ANAL 1_NG/ML,12.0,1667980800.0,19305.0,28800.0,1668067200.0,19306.0,28800.0,5.397605346934028e-79,0,15.27,GENERAL,5.397605346934028e-79,General,ANALYTE,1.0,Analyte,24 HOURS POST DOSE,DOSE,,,,1.0,2.0,C,C,PERIOD 3,3.0,3.0,3.0,C,2.0
169,Study001,Study001_1001023,1001023,1001,7,170.0,127,ng/mL,871,871.0,ng/mL,PLASMA,27.0,Plasma,PLASMA,,206.0,TREATMENT PERIOD 2,25.0,Treatment period 2,TRTPR2,2012-11-09T08:00:00,11.0,24 HOURS POST DOSE,12.0,PT24H,DOSE,2012-11-08T08:00,1667980800.0,24,,24,A,127,OK,2012-10-30T08:00,2012-11-12,1668297600.0,25.0,25.0,YEARS,349.0,Years,YEARS,F,F,CAUCASIAN,CA,,HISPANIC OR LATINO,HIS,ABC,A / B /C,HISPANIC OR LATINO,100.0,CAUCASIAN,10.0,F,2.0,ABC,A / B /C,,,25/F/Ca,MOON/1001023,1.0,1.0,Y,Y,N,1.0,1.0,5.397605346934028e-79,19296.0,19296.0,C,C,3.0,3.0,1667203200.0,1667980800.0,28800.0,19305.0,19296.0,A / B /C,A / B /C,19309.0,PCCONC,PK concentration (ng/mL),DRUG ANAL 2 Plasma,PC_ANAL 2_NG/ML,12.0,1667980800.0,19305.0,28800.0,1668067200.0,19306.0,28800.0,871.0,871,16.270000000000007,GENERAL,5.397605346934028e-79,General,ANALYTE,1.0,Analyte,24 HOURS POST DOSE,DOSE,,,,1.0,2.0,C,C,PERIOD 3,3.0,3.0,3.0,C,2.0
170,Study001,Study001_1001023,1001023,1001,7,171.0,127,ng/mL,      70.4,70.4,ng/mL,PLASMA,27.0,Plasma,PLASMA,,206.0,TREATMENT PERIOD 2,25.0,Treatment period 2,TRTPR2,2012-11-09T08:00:00,11.0,24 HOURS POST DOSE,12.0,PT24H,DOSE,2012-11-08T08:00,1667980800.0,24,,24,A,127,OK,2012-10-30T08:00,2012-11-12,1668297600.0,25.0,25.0,YEARS,349.0,Years,YEARS,F,F,CAUCASIAN,CA,,HISPANIC OR LATINO,HIS,ABC,A / B /C,HISPANIC OR LATINO,100.0,CAUCASIAN,10.0,F,2.0,ABC,A / B /C,,,25/F/Ca,MOON/1001023,1.0,1.0,Y,Y,N,1.0,1.0,5.397605346934028e-79,19296.0,19296.0,C,C,3.0,3.0,1667203200.0,1667980800.0,28800.0,19305.0,19296.0,A / B /C,A / B /C,19309.0,PCCONC,PK concentration (ng/mL),DRUG ANAL 3 Plasma,PC_ANAL 3_NG/ML,12.0,1667980800.0,19305.0,28800.0,1668067200.0,19306.0,28800.0,70.4,      70.4,17.270000000000007,GENERAL,5.397605346934028e-79,General,ANALYTE,1.0,Analyte,24 HOURS POST DOSE,DOSE,,,,1.0,2.0,C,C,PERIOD 3,3.0,3.0,3.0,C,2.0
171,Study001,Study001_1001023,1001023,1001,7,172.0,128,ng/mL,0,5.397605346934028e-79,ng/mL,PLASMA,27.0,Plasma,PLASMA,1.0,207.0,TREATMENT PERIOD 2,25.0,Treatment period 2,TRTPR2,2012-11-10T08:00:00,12.0,48 HOURS POST DOSE,13.0,PT48H,DOSE,2012-11-08T08:00,1667980800.0,48,,48,A,128,OK,2012-10-30T08:00,2012-11-12,1668297600.0,25.0,25.0,YEARS,349.0,Years,YEARS,F,F,CAUCASIAN,CA,,HISPANIC OR LATINO,HIS,ABC,A / B /C,HISPANIC OR LATINO,100.0,CAUCASIAN,10.0,F,2.0,ABC,A / B /C,,,25/F/Ca,MOON/1001023,1.0,1.0,Y,Y,N,1.0,1.0,5.397605346934028e-79,19296.0,19296.0,C,C,3.0,3.0,1667203200.0,1667980800.0,28800.0,19305.0,19296.0,A / B /C,A / B /C,19309.0,PCCONC,PK concentration (ng/mL),DRUG ANAL 1 Plasma,PC_ANAL 1_NG/ML,13.0,1667980800.0,19305.0,28800.0,1668153600.0,19307.0,28800.0,5.397605346934028e-79,0,15.27,GENERAL,5.397605346934028e-79,General,ANALYTE,1.0,Analyte,48 HOURS POST DOSE,DOSE,,,,1.0,3.0,C,C,PERIOD 3,3.0,3.0,3.0,C,3.0
172,Study001,Study001_1001023,1001023,1001,7,173.0,128,ng/mL,      69.1,69.10000000000001,ng/mL,PLASMA,27.0,Plasma,PLASMA,,207.0,TREATMENT PERIOD 2,25.0,Treatment period 2,TRTPR2,2012-11-10T08:00:00,12.0,48 HOURS POST DOSE,13.0,PT48H,DOSE,2012-11-08T08:00,1667980800.0,48,,48,A,128,OK,2012-10-30T08:00,2012-11-12,1668297600.0,25.0,25.0,YEARS,349.0,Years,YEARS,F,F,CAUCASIAN,CA,,HISPANIC OR LATINO,HIS,ABC,A / B /C,HISPANIC OR LATINO,100.0,CAUCASIAN,10.0,F,2.0,ABC,A / B /C,,,25/F/Ca,MOON/1001023,1.0,1.0,Y,Y,N,1.0,1.0,5.397605346934028e-79,19296.0,19296.0,C,C,3.0,3.0,1667203200.0,1667980800.0,28800.0,19305.0,19296.0,A / B /C,A / B /C,19309.0,PCCONC,PK concentration (ng/mL),DRUG ANAL 2 Plasma,PC_ANAL 2_NG/ML,13.0,1667980800.0,19305.0,28800.0,1668153600.0,19307.0,28800.0,69.10000000000001,      69.1,16.270000000000007,GENERAL,5.397605346934028e-79,General,ANALYTE,1.0,Analyte,48 HOURS POST DOSE,DOSE,,,,1.0,3.0,C,C,PERIOD 3,3.0,3.0,3.0,C,3.0
173,Study001,Study001_1001023,1001023,1001,7,174.0,128,ng/mL,0,5.397605346934028e-79,ng/mL,PLASMA,27.0,Plasma,PLASMA,10.0,207.0,TREATMENT PERIOD 2,25.0,Treatment period 2,TRTPR2,2012-11-10T08:00:00,12.0,48 HOURS POST DOSE,13.0,PT48H,DOSE,2012-11-08T08:00,1667980800.0,48,,48,A,128,OK,2012-10-30T08:00,2012-11-12,1668297600.0,25.0,25.0,YEARS,349.0,Years,YEARS,F,F,CAUCASIAN,CA,,HISPANIC OR LATINO,HIS,ABC,A / B /C,HISPANIC OR LATINO,100.0,CAUCASIAN,10.0,F,2.0,ABC,A / B /C,,,25/F/Ca,MOON/1001023,1.0,1.0,Y,Y,N,1.0,1.0,5.397605346934028e-79,19296.0,19296.0,C,C,3.0,3.0,1667203200.0,1667980800.0,28800.0,19305.0,19296.0,A / B /C,A / B /C,19309.0,PCCONC,PK concentration (ng/mL),DRUG ANAL 3 Plasma,PC_ANAL 3_NG/ML,13.0,1667980800.0,19305.0,28800.0,1668153600.0,19307.0,28800.0,5.397605346934028e-79,0,17.270000000000007,GENERAL,5.397605346934028e-79,General,ANALYTE,1.0,Analyte,48 HOURS POST DOSE,DOSE,,,,1.0,3.0,C,C,PERIOD 3,3.0,3.0,3.0,C,3.0
174,Study001,Study001_1001023,1001023,1001,7,175.0,129,ng/mL,0,5.397605346934028e-79,ng/mL,PLASMA,27.0,Plasma,PLASMA,1.0,208.0,TREATMENT PERIOD 2,25.0,Treatment period 2,TRTPR2,2012-11-11T08:00:00,13.0,72 HOURS POST DOSE,14.0,PT72H,DOSE,2012-11-08T08:00,1667980800.0,72,,72,A,129,OK,2012-10-30T08:00,2012-11-12,1668297600.0,25.0,25.0,YEARS,349.0,Years,YEARS,F,F,CAUCASIAN,CA,,HISPANIC OR LATINO,HIS,ABC,A / B /C,HISPANIC OR LATINO,100.0,CAUCASIAN,10.0,F,2.0,ABC,A / B /C,,,25/F/Ca,MOON/1001023,1.0,1.0,Y,Y,N,1.0,1.0,5.397605346934028e-79,19296.0,19296.0,C,C,3.0,3.0,1667203200.0,1667980800.0,28800.0,19305.0,19296.0,A / B /C,A / B /C,19309.0,PCCONC,PK concentration (ng/mL),DRUG ANAL 1 Plasma,PC_ANAL 1_NG/ML,14.0,1667980800.0,19305.0,28800.0,1668240000.0,19308.0,28800.0,5.397605346934028e-79,0,15.27,GENERAL,5.397605346934028e-79,General,ANALYTE,1.0,Analyte,72 HOURS POST DOSE,DOSE,,,,1.0,4.0,C,C,PERIOD 3,3.0,3.0,3.0,C,4.0
175,Study001,Study001_1001023,1001023,1001,7,176.0,129,ng/mL,0,5.397605346934028e-79,ng/mL,PLASMA,27.0,Plasma,PLASMA,20.0,208.0,TREATMENT PERIOD 2,25.0,Treatment period 2,TRTPR2,2012-11-11T08:00:00,13.0,72 HOURS POST DOSE,14.0,PT72H,DOSE,2012-11-08T08:00,1667980800.0,72,,72,A,129,OK,2012-10-30T08:00,2012-11-12,1668297600.0,25.0,25.0,YEARS,349.0,Years,YEARS,F,F,CAUCASIAN,CA,,HISPANIC OR LATINO,HIS,ABC,A / B /C,HISPANIC OR LATINO,100.0,CAUCASIAN,10.0,F,2.0,ABC,A / B /C,,,25/F/Ca,MOON/1001023,1.0,1.0,Y,Y,N,1.0,1.0,5.397605346934028e-79,19296.0,19296.0,C,C,3.0,3.0,1667203200.0,1667980800.0,28800.0,19305.0,19296.0,A / B /C,A / B /C,19309.0,PCCONC,PK concentration (ng/mL),DRUG ANAL 2 Plasma,PC_ANAL 2_NG/ML,14.0,1667980800.0,19305.0,28800.0,1668240000.0,19308.0,28800.0,5.397605346934028e-79,0,16.270000000000007,GENERAL,5.397605346934028e-79,General,ANALYTE,1.0,Analyte,72 HOURS POST DOSE,DOSE,,,,1.0,4.0,C,C,PERIOD 3,3.0,3.0,3.0,C,4.0
176,Study001,Study001_1001023,1001023,1001,7,177.0,129,ng/mL,0,5.397605346934028e-79,ng/mL,PLASMA,27.0,Plasma,PLASMA,10.0,208.0,TREATMENT PERIOD 2,25.0,Treatment period 2,TRTPR2,2012-11-11T08:00:00,13.0,72 HOURS POST DOSE,14.0,PT72H,DOSE,2012-11-08T08:00,1667980800.0,72,,72,A,129,OK,2012-10-30T08:00,2012-11-12,1668297600.0,25.0,25.0,YEARS,349.0,Years,YEARS,F,F,CAUCASIAN,CA,,HISPANIC OR LATINO,HIS,ABC,A / B /C,HISPANIC OR LATINO,100.0,CAUCASIAN,10.0,F,2.0,ABC,A / B /C,,,25/F/Ca,MOON/1001023,1.0,1.0,Y,Y,N,1.0,1.0,5.397605346934028e-79,19296.0,19296.0,C,C,3.0,3.0,1667203200.0,1667980800.0,28800.0,19305.0,19296.0,A / B /C,A / B /C,19309.0,PCCONC,PK concentration (ng/mL),DRUG ANAL 3 Plasma,PC_ANAL 3_NG/ML,14.0,1667980800.0,19305.0,28800.0,1668240000.0,19308.0,28800.0,5.397605346934028e-79,0,17.270000000000007,GENERAL,5.397605346934028e-79,General,ANALYTE,1.0,Analyte,72 HOURS POST DOSE,DOSE,,,,1.0,4.0,C,C,PERIOD 3,3.0,3.0,3.0,C,4.0
177,Study001,Study001_1001023,1001023,1001,7,178.0,130,ng/mL,0,5.397605346934028e-79,ng/mL,PLASMA,27.0,Plasma,PLASMA,1.0,299.0,TREATMENT PERIOD 2,25.0,Treatment period 2,TRTPR2,2012-11-12T08:00:00,14.0,96 HOURS POST DOSE,15.0,PT96H,DOSE,2012-11-08T08:00,1667980800.0,96,,96,A,130,OK,2012-10-30T08:00,2012-11-12,1668297600.0,25.0,25.0,YEARS,349.0,Years,YEARS,F,F,CAUCASIAN,CA,,HISPANIC OR LATINO,HIS,ABC,A / B /C,HISPANIC OR LATINO,100.0,CAUCASIAN,10.0,F,2.0,ABC,A / B /C,,,25/F/Ca,MOON/1001023,1.0,1.0,Y,Y,N,1.0,1.0,5.397605346934028e-79,19296.0,19296.0,C,C,3.0,3.0,1667203200.0,1667980800.0,28800.0,19305.0,19296.0,A / B /C,A / B /C,19309.0,PCCONC,PK concentration (ng/mL),DRUG ANAL 1 Plasma,PC_ANAL 1_NG/ML,15.0,1667980800.0,19305.0,28800.0,1668326400.0,19309.0,28800.0,5.397605346934028e-79,0,15.27,GENERAL,5.397605346934028e-79,General,ANALYTE,1.0,Analyte,96 HOURS POST DOSE,DOSE,,,,1.0,5.0,C,C,PERIOD 3,3.0,3.0,3.0,C,5.0
178,Study001,Study001_1001023,1001023,1001,7,179.0,130,ng/mL,0,5.397605346934028e-79,ng/mL,PLASMA,27.0,Plasma,PLASMA,20.0,299.0,TREATMENT PERIOD 2,25.0,Treatment period 2,TRTPR2,2012-11-12T08:00:00,14.0,96 HOURS POST DOSE,15.0,PT96H,DOSE,2012-11-08T08:00,1667980800.0,96,,96,A,130,OK,2012-10-30T08:00,2012-11-12,1668297600.0,25.0,25.0,YEARS,349.0,Years,YEARS,F,F,CAUCASIAN,CA,,HISPANIC OR LATINO,HIS,ABC,A / B /C,HISPANIC OR LATINO,100.0,CAUCASIAN,10.0,F,2.0,ABC,A / B /C,,,25/F/Ca,MOON/1001023,1.0,1.0,Y,Y,N,1.0,1.0,5.397605346934028e-79,19296.0,19296.0,C,C,3.0,3.0,1667203200.0,1667980800.0,28800.0,19305.0,19296.0,A / B /C,A / B /C,19309.0,PCCONC,PK concentration (ng/mL),DRUG ANAL 2 Plasma,PC_ANAL 2_NG/ML,15.0,1667980800.0,19305.0,28800.0,1668326400.0,19309.0,28800.0,5.397605346934028e-79,0,16.270000000000007,GENERAL,5.397605346934028e-79,General,ANALYTE,1.0,Analyte,96 HOURS POST DOSE,DOSE,,,,1.0,5.0,C,C,PERIOD 3,3.0,3.0,3.0,C,5.0
179,Study001,Study001_1001023,1001023,1001,7,180.0,130,ng/mL,0,5.397605346934028e-79,ng/mL,PLASMA,27.0,Plasma,PLASMA,10.0,299.0,TREATMENT PERIOD 2,25.0,Treatment period 2,TRTPR2,2012-11-12T08:00:00,14.0,96 HOURS POST DOSE,15.0,PT96H,DOSE,2012-11-08T08:00,1667980800.0,96,,96,A,130,OK,2012-10-30T08:00,2012-11-12,1668297600.0,25.0,25.0,YEARS,349.0,Years,YEARS,F,F,CAUCASIAN,CA,,HISPANIC OR LATINO,HIS,ABC,A / B /C,HISPANIC OR LATINO,100.0,CAUCASIAN,10.0,F,2.0,ABC,A / B /C,,,25/F/Ca,MOON/1001023,1.0,1.0,Y,Y,N,1.0,1.0,5.397605346934028e-79,19296.0,19296.0,C,C,3.0,3.0,1667203200.0,1667980800.0,28800.0,19305.0,19296.0,A / B /C,A / B /C,19309.0,PCCONC,PK concentration (ng/mL),DRUG ANAL 3 Plasma,PC_ANAL 3_NG/ML,15.0,1667980800.0,19305.0,28800.0,1668326400.0,19309.0,28800.0,5.397605346934028e-79,0,17.270000000000007,GENERAL,5.397605346934028e-79,General,ANALYTE,1.0,Analyte,96 HOURS POST DOSE,DOSE,,,,1.0,5.0,C,C,PERIOD 3,3.0,3.0,3.0,C,5.0
180,Study001,Study001_1001018,1001018,1001,8,181.0,101,ng/mL,0,5.397605346934028e-79,ng/mL,PLASMA,27.0,Plasma,PLASMA,1.0,101.0,TREATMENT PERIOD 1,24.0,Treatment period 1,TRTPR1,2012-10-30T07:55:00,1.0,0 HOURS PRE DOSE,1.0,-PT0H,DOSE,2012-10-30T08:05,1667203500.0,0,,0,A,101,OK,2012-10-30T08:05,2012-11-12,1668297600.0,25.0,25.0,YEARS,349.0,Years,YEARS,F,F,CAUCASIAN,CA,,HISPANIC OR LATINO,HIS,ABC,A / B /C,HISPANIC OR LATINO,100.0,CAUCASIAN,10.0,F,2.0,ABC,A / B /C,,,25/F/Ca,MOON/1001018,1.0,1.0,Y,Y,N,1.0,1.0,5.397605346934028e-79,19296.0,19296.0,C,C,3.0,3.0,1667203500.0,1667981160.0,29160.0,19305.0,19296.0,A / B /C,A / B /C,19309.0,PCCONC,PK concentration (ng/mL),DRUG ANAL 1 Plasma,PC_ANAL 1_NG/ML,1.0,1667203500.0,19296.0,29100.0,1667202900.0,19296.0,28500.0,5.397605346934028e-79,0,15.27,GENERAL,5.397605346934028e-79,General,ANALYTE,1.0,Analyte,0 HOURS PRE DOSE,DOSE,,,,1.0,1.0,A,A,PERIOD 1,1.0,1.0,1.0,A,1.0
181,Study001,Study001_1001018,1001018,1001,8,182.0,101,ng/mL,0,5.397605346934028e-79,ng/mL,PLASMA,27.0,Plasma,PLASMA,20.0,101.0,TREATMENT PERIOD 1,24.0,Treatment period 1,TRTPR1,2012-10-30T07:55:00,1.0,0 HOURS PRE DOSE,1.0,-PT0H,DOSE,2012-10-30T08:05,1667203500.0,0,,0,A,101,OK,2012-10-30T08:05,2012-11-12,1668297600.0,25.0,25.0,YEARS,349.0,Years,YEARS,F,F,CAUCASIAN,CA,,HISPANIC OR LATINO,HIS,ABC,A / B /C,HISPANIC OR LATINO,100.0,CAUCASIAN,10.0,F,2.0,ABC,A / B /C,,,25/F/Ca,MOON/1001018,1.0,1.0,Y,Y,N,1.0,1.0,5.397605346934028e-79,19296.0,19296.0,C,C,3.0,3.0,1667203500.0,1667981160.0,29160.0,19305.0,19296.0,A / B /C,A / B /C,19309.0,PCCONC,PK concentration (ng/mL),DRUG ANAL 2 Plasma,PC_ANAL 2_NG/ML,1.0,1667203500.0,19296.0,29100.0,1667202900.0,19296.0,28500.0,5.397605346934028e-79,0,16.270000000000007,GENERAL,5.397605346934028e-79,General,ANALYTE,1.0,Analyte,0 HOURS PRE DOSE,DOSE,,,,1.0,1.0,A,A,PERIOD 1,1.0,1.0,1.0,A,1.0
182,Study001,Study001_1001018,1001018,1001,8,183.0,101,ng/mL,0,5.397605346934028e-79,ng/mL,PLASMA,27.0,Plasma,PLASMA,10.0,101.0,TREATMENT PERIOD 1,24.0,Treatment period 1,TRTPR1,2012-10-30T07:55:00,1.0,0 HOURS PRE DOSE,1.0,-PT0H,DOSE,2012-10-30T08:05,1667203500.0,0,,0,A,101,OK,2012-10-30T08:05,2012-11-12,1668297600.0,25.0,25.0,YEARS,349.0,Years,YEARS,F,F,CAUCASIAN,CA,,HISPANIC OR LATINO,HIS,ABC,A / B /C,HISPANIC OR LATINO,100.0,CAUCASIAN,10.0,F,2.0,ABC,A / B /C,,,25/F/Ca,MOON/1001018,1.0,1.0,Y,Y,N,1.0,1.0,5.397605346934028e-79,19296.0,19296.0,C,C,3.0,3.0,1667203500.0,1667981160.0,29160.0,19305.0,19296.0,A / B /C,A / B /C,19309.0,PCCONC,PK concentration (ng/mL),DRUG ANAL 3 Plasma,PC_ANAL 3_NG/ML,1.0,1667203500.0,19296.0,29100.0,1667202900.0,19296.0,28500.0,5.397605346934028e-79,0,17.270000000000007,GENERAL,5.397605346934028e-79,General,ANALYTE,1.0,Analyte,0 HOURS PRE DOSE,DOSE,,,,1.0,1.0,A,A,PERIOD 1,1.0,1.0,1.0,A,1.0
183,Study001,Study001_1001018,1001018,1001,8,184.0,102,ng/mL,2230,2230.0,ng/mL,PLASMA,27.0,Plasma,PLASMA,,101.0,TREATMENT PERIOD 1,24.0,Treatment period 1,TRTPR1,2012-10-30T08:20:00,1.0,0.25 HOURS POST DOSE,2.0,PT0.25H,DOSE,2012-10-30T08:05,1667203500.0,0.25,,0.25,A,102,OK,2012-10-30T08:05,2012-11-12,1668297600.0,25.0,25.0,YEARS,349.0,Years,YEARS,F,F,CAUCASIAN,CA,,HISPANIC OR LATINO,HIS,ABC,A / B /C,HISPANIC OR LATINO,100.0,CAUCASIAN,10.0,F,2.0,ABC,A / B /C,,,25/F/Ca,MOON/1001018,1.0,1.0,Y,Y,N,1.0,1.0,5.397605346934028e-79,19296.0,19296.0,C,C,3.0,3.0,1667203500.0,1667981160.0,29160.0,19305.0,19296.0,A / B /C,A / B /C,19309.0,PCCONC,PK concentration (ng/mL),DRUG ANAL 1 Plasma,PC_ANAL 1_NG/ML,2.0,1667203500.0,19296.0,29100.0,1667204400.0,19296.0,30000.0,2230.0,2230,15.27,GENERAL,5.397605346934028e-79,General,ANALYTE,1.0,Analyte,0.25 HOURS POST DOSE,DOSE,,,,1.0,1.0,A,A,PERIOD 1,1.0,1.0,1.0,A,1.0
184,Study001,Study001_1001018,1001018,1001,8,185.0,102,ng/mL,105,105.0,ng/mL,PLASMA,27.0,Plasma,PLASMA,,101.0,TREATMENT PERIOD 1,24.0,Treatment period 1,TRTPR1,2012-10-30T08:20:00,1.0,0.25 HOURS POST DOSE,2.0,PT0.25H,DOSE,2012-10-30T08:05,1667203500.0,0.25,,0.25,A,102,OK,2012-10-30T08:05,2012-11-12,1668297600.0,25.0,25.0,YEARS,349.0,Years,YEARS,F,F,CAUCASIAN,CA,,HISPANIC OR LATINO,HIS,ABC,A / B /C,HISPANIC OR LATINO,100.0,CAUCASIAN,10.0,F,2.0,ABC,A / B /C,,,25/F/Ca,MOON/1001018,1.0,1.0,Y,Y,N,1.0,1.0,5.397605346934028e-79,19296.0,19296.0,C,C,3.0,3.0,1667203500.0,1667981160.0,29160.0,19305.0,19296.0,A / B /C,A / B /C,19309.0,PCCONC,PK concentration (ng/mL),DRUG ANAL 2 Plasma,PC_ANAL 2_NG/ML,2.0,1667203500.0,19296.0,29100.0,1667204400.0,19296.0,30000.0,105.0,105,16.270000000000007,GENERAL,5.397605346934028e-79,General,ANALYTE,1.0,Analyte,0.25 HOURS POST DOSE,DOSE,,,,1.0,1.0,A,A,PERIOD 1,1.0,1.0,1.0,A,1.0
185,Study001,Study001_1001018,1001018,1001,8,186.0,102,ng/mL,449,449.0,ng/mL,PLASMA,27.0,Plasma,PLASMA,,101.0,TREATMENT PERIOD 1,24.0,Treatment period 1,TRTPR1,2012-10-30T08:20:00,1.0,0.25 HOURS POST DOSE,2.0,PT0.25H,DOSE,2012-10-30T08:05,1667203500.0,0.25,,0.25,A,102,OK,2012-10-30T08:05,2012-11-12,1668297600.0,25.0,25.0,YEARS,349.0,Years,YEARS,F,F,CAUCASIAN,CA,,HISPANIC OR LATINO,HIS,ABC,A / B /C,HISPANIC OR LATINO,100.0,CAUCASIAN,10.0,F,2.0,ABC,A / B /C,,,25/F/Ca,MOON/1001018,1.0,1.0,Y,Y,N,1.0,1.0,5.397605346934028e-79,19296.0,19296.0,C,C,3.0,3.0,1667203500.0,1667981160.0,29160.0,19305.0,19296.0,A / B /C,A / B /C,19309.0,PCCONC,PK concentration (ng/mL),DRUG ANAL 3 Plasma,PC_ANAL 3_NG/ML,2.0,1667203500.0,19296.0,29100.0,1667204400.0,19296.0,30000.0,449.0,449,17.270000000000007,GENERAL,5.397605346934028e-79,General,ANALYTE,1.0,Analyte,0.25 HOURS POST DOSE,DOSE,,,,1.0,1.0,A,A,PERIOD 1,1.0,1.0,1.0,A,1.0
186,Study001,Study001_1001018,1001018,1001,8,187.0,103,ng/mL,4260,4260.0,ng/mL,PLASMA,27.0,Plasma,PLASMA,,101.0,TREATMENT PERIOD 1,24.0,Treatment period 1,TRTPR1,2012-10-30T08:35:00,1.0,0.5 HOURS POST DOSE,3.0,PT0.5H,DOSE,2012-10-30T08:05,1667203500.0,0.5,,0.5,A,103,OK,2012-10-30T08:05,2012-11-12,1668297600.0,25.0,25.0,YEARS,349.0,Years,YEARS,F,F,CAUCASIAN,CA,,HISPANIC OR LATINO,HIS,ABC,A / B /C,HISPANIC OR LATINO,100.0,CAUCASIAN,10.0,F,2.0,ABC,A / B /C,,,25/F/Ca,MOON/1001018,1.0,1.0,Y,Y,N,1.0,1.0,5.397605346934028e-79,19296.0,19296.0,C,C,3.0,3.0,1667203500.0,1667981160.0,29160.0,19305.0,19296.0,A / B /C,A / B /C,19309.0,PCCONC,PK concentration (ng/mL),DRUG ANAL 1 Plasma,PC_ANAL 1_NG/ML,3.0,1667203500.0,19296.0,29100.0,1667205300.0,19296.0,30900.0,4260.0,4260,15.27,GENERAL,5.397605346934028e-79,General,ANALYTE,1.0,Analyte,0.5 HOURS POST DOSE,DOSE,,,,1.0,1.0,A,A,PERIOD 1,1.0,1.0,1.0,A,1.0
187,Study001,Study001_1001018,1001018,1001,8,188.0,103,ng/mL,3100,3100.0,ng/mL,PLASMA,27.0,Plasma,PLASMA,,101.0,TREATMENT PERIOD 1,24.0,Treatment period 1,TRTPR1,2012-10-30T08:35:00,1.0,0.5 HOURS POST DOSE,3.0,PT0.5H,DOSE,2012-10-30T08:05,1667203500.0,0.5,,0.5,A,103,OK,2012-10-30T08:05,2012-11-12,1668297600.0,25.0,25.0,YEARS,349.0,Years,YEARS,F,F,CAUCASIAN,CA,,HISPANIC OR LATINO,HIS,ABC,A / B /C,HISPANIC OR LATINO,100.0,CAUCASIAN,10.0,F,2.0,ABC,A / B /C,,,25/F/Ca,MOON/1001018,1.0,1.0,Y,Y,N,1.0,1.0,5.397605346934028e-79,19296.0,19296.0,C,C,3.0,3.0,1667203500.0,1667981160.0,29160.0,19305.0,19296.0,A / B /C,A / B /C,19309.0,PCCONC,PK concentration (ng/mL),DRUG ANAL 2 Plasma,PC_ANAL 2_NG/ML,3.0,1667203500.0,19296.0,29100.0,1667205300.0,19296.0,30900.0,3100.0,3100,16.270000000000007,GENERAL,5.397605346934028e-79,General,ANALYTE,1.0,Analyte,0.5 HOURS POST DOSE,DOSE,,,,1.0,1.0,A,A,PERIOD 1,1.0,1.0,1.0,A,1.0
188,Study001,Study001_1001018,1001018,1001,8,189.0,103,ng/mL,739,739.0,ng/mL,PLASMA,27.0,Plasma,PLASMA,,101.0,TREATMENT PERIOD 1,24.0,Treatment period 1,TRTPR1,2012-10-30T08:35:00,1.0,0.5 HOURS POST DOSE,3.0,PT0.5H,DOSE,2012-10-30T08:05,1667203500.0,0.5,,0.5,A,103,OK,2012-10-30T08:05,2012-11-12,1668297600.0,25.0,25.0,YEARS,349.0,Years,YEARS,F,F,CAUCASIAN,CA,,HISPANIC OR LATINO,HIS,ABC,A / B /C,HISPANIC OR LATINO,100.0,CAUCASIAN,10.0,F,2.0,ABC,A / B /C,,,25/F/Ca,MOON/1001018,1.0,1.0,Y,Y,N,1.0,1.0,5.397605346934028e-79,19296.0,19296.0,C,C,3.0,3.0,1667203500.0,1667981160.0,29160.0,19305.0,19296.0,A / B /C,A / B /C,19309.0,PCCONC,PK concentration (ng/mL),DRUG ANAL 3 Plasma,PC_ANAL 3_NG/ML,3.0,1667203500.0,19296.0,29100.0,1667205300.0,19296.0,30900.0,739.0,739,17.270000000000007,GENERAL,5.397605346934028e-79,General,ANALYTE,1.0,Analyte,0.5 HOURS POST DOSE,DOSE,,,,1.0,1.0,A,A,PERIOD 1,1.0,1.0,1.0,A,1.0
189,Study001,Study001_1001018,1001018,1001,8,190.0,104,ng/mL,2100,2100.0,ng/mL,PLASMA,27.0,Plasma,PLASMA,,101.0,TREATMENT PERIOD 1,24.0,Treatment period 1,TRTPR1,2012-10-30T09:05:00,1.0,1 HOURS POST DOSE,4.0,PT1H,DOSE,2012-10-30T08:05,1667203500.0,1,,1,A,104,OK,2012-10-30T08:05,2012-11-12,1668297600.0,25.0,25.0,YEARS,349.0,Years,YEARS,F,F,CAUCASIAN,CA,,HISPANIC OR LATINO,HIS,ABC,A / B /C,HISPANIC OR LATINO,100.0,CAUCASIAN,10.0,F,2.0,ABC,A / B /C,,,25/F/Ca,MOON/1001018,1.0,1.0,Y,Y,N,1.0,1.0,5.397605346934028e-79,19296.0,19296.0,C,C,3.0,3.0,1667203500.0,1667981160.0,29160.0,19305.0,19296.0,A / B /C,A / B /C,19309.0,PCCONC,PK concentration (ng/mL),DRUG ANAL 1 Plasma,PC_ANAL 1_NG/ML,4.0,1667203500.0,19296.0,29100.0,1667207100.0,19296.0,32700.0,2100.0,2100,15.27,GENERAL,5.397605346934028e-79,General,ANALYTE,1.0,Analyte,1 HOURS POST DOSE,DOSE,,,,1.0,1.0,A,A,PERIOD 1,1.0,1.0,1.0,A,1.0
190,Study001,Study001_1001018,1001018,1001,8,191.0,104,ng/mL,14300,14300.0,ng/mL,PLASMA,27.0,Plasma,PLASMA,,101.0,TREATMENT PERIOD 1,24.0,Treatment period 1,TRTPR1,2012-10-30T09:05:00,1.0,1 HOURS POST DOSE,4.0,PT1H,DOSE,2012-10-30T08:05,1667203500.0,1,,1,A,104,OK,2012-10-30T08:05,2012-11-12,1668297600.0,25.0,25.0,YEARS,349.0,Years,YEARS,F,F,CAUCASIAN,CA,,HISPANIC OR LATINO,HIS,ABC,A / B /C,HISPANIC OR LATINO,100.0,CAUCASIAN,10.0,F,2.0,ABC,A / B /C,,,25/F/Ca,MOON/1001018,1.0,1.0,Y,Y,N,1.0,1.0,5.397605346934028e-79,19296.0,19296.0,C,C,3.0,3.0,1667203500.0,1667981160.0,29160.0,19305.0,19296.0,A / B /C,A / B /C,19309.0,PCCONC,PK concentration (ng/mL),DRUG ANAL 2 Plasma,PC_ANAL 2_NG/ML,4.0,1667203500.0,19296.0,29100.0,1667207100.0,19296.0,32700.0,14300.0,14300,16.270000000000007,GENERAL,5.397605346934028e-79,General,ANALYTE,1.0,Analyte,1 HOURS POST DOSE,DOSE,,,,1.0,1.0,A,A,PERIOD 1,1.0,1.0,1.0,A,1.0
191,Study001,Study001_1001018,1001018,1001,8,192.0,104,ng/mL,2630,2630.0,ng/mL,PLASMA,27.0,Plasma,PLASMA,,101.0,TREATMENT PERIOD 1,24.0,Treatment period 1,TRTPR1,2012-10-30T09:05:00,1.0,1 HOURS POST DOSE,4.0,PT1H,DOSE,2012-10-30T08:05,1667203500.0,1,,1,A,104,OK,2012-10-30T08:05,2012-11-12,1668297600.0,25.0,25.0,YEARS,349.0,Years,YEARS,F,F,CAUCASIAN,CA,,HISPANIC OR LATINO,HIS,ABC,A / B /C,HISPANIC OR LATINO,100.0,CAUCASIAN,10.0,F,2.0,ABC,A / B /C,,,25/F/Ca,MOON/1001018,1.0,1.0,Y,Y,N,1.0,1.0,5.397605346934028e-79,19296.0,19296.0,C,C,3.0,3.0,1667203500.0,1667981160.0,29160.0,19305.0,19296.0,A / B /C,A / B /C,19309.0,PCCONC,PK concentration (ng/mL),DRUG ANAL 3 Plasma,PC_ANAL 3_NG/ML,4.0,1667203500.0,19296.0,29100.0,1667207100.0,19296.0,32700.0,2630.0,2630,17.270000000000007,GENERAL,5.397605346934028e-79,General,ANALYTE,1.0,Analyte,1 HOURS POST DOSE,DOSE,,,,1.0,1.0,A,A,PERIOD 1,1.0,1.0,1.0,A,1.0
192,Study001,Study001_1001018,1001018,1001,8,193.0,105,ng/mL,830,830.0,ng/mL,PLASMA,27.0,Plasma,PLASMA,,101.0,TREATMENT PERIOD 1,24.0,Treatment period 1,TRTPR1,2012-10-30T09:35:00,1.0,1.5 HOURS POST DOSE,5.0,PT1.5H,DOSE,2012-10-30T08:05,1667203500.0,1.5,,1.5,A,105,OK,2012-10-30T08:05,2012-11-12,1668297600.0,25.0,25.0,YEARS,349.0,Years,YEARS,F,F,CAUCASIAN,CA,,HISPANIC OR LATINO,HIS,ABC,A / B /C,HISPANIC OR LATINO,100.0,CAUCASIAN,10.0,F,2.0,ABC,A / B /C,,,25/F/Ca,MOON/1001018,1.0,1.0,Y,Y,N,1.0,1.0,5.397605346934028e-79,19296.0,19296.0,C,C,3.0,3.0,1667203500.0,1667981160.0,29160.0,19305.0,19296.0,A / B /C,A / B /C,19309.0,PCCONC,PK concentration (ng/mL),DRUG ANAL 1 Plasma,PC_ANAL 1_NG/ML,5.0,1667203500.0,19296.0,29100.0,1667208900.0,19296.0,34500.0,830.0,830,15.27,GENERAL,5.397605346934028e-79,General,ANALYTE,1.0,Analyte,1.5 HOURS POST DOSE,DOSE,,,,1.0,1.0,A,A,PERIOD 1,1.0,1.0,1.0,A,1.0
193,Study001,Study001_1001018,1001018,1001,8,194.0,105,ng/mL,19300,19300.0,ng/mL,PLASMA,27.0,Plasma,PLASMA,,101.0,TREATMENT PERIOD 1,24.0,Treatment period 1,TRTPR1,2012-10-30T09:35:00,1.0,1.5 HOURS POST DOSE,5.0,PT1.5H,DOSE,2012-10-30T08:05,1667203500.0,1.5,,1.5,A,105,OK,2012-10-30T08:05,2012-11-12,1668297600.0,25.0,25.0,YEARS,349.0,Years,YEARS,F,F,CAUCASIAN,CA,,HISPANIC OR LATINO,HIS,ABC,A / B /C,HISPANIC OR LATINO,100.0,CAUCASIAN,10.0,F,2.0,ABC,A / B /C,,,25/F/Ca,MOON/1001018,1.0,1.0,Y,Y,N,1.0,1.0,5.397605346934028e-79,19296.0,19296.0,C,C,3.0,3.0,1667203500.0,1667981160.0,29160.0,19305.0,19296.0,A / B /C,A / B /C,19309.0,PCCONC,PK concentration (ng/mL),DRUG ANAL 2 Plasma,PC_ANAL 2_NG/ML,5.0,1667203500.0,19296.0,29100.0,1667208900.0,19296.0,34500.0,19300.0,19300,16.270000000000007,GENERAL,5.397605346934028e-79,General,ANALYTE,1.0,Analyte,1.5 HOURS POST DOSE,DOSE,,,,1.0,1.0,A,A,PERIOD 1,1.0,1.0,1.0,A,1.0
194,Study001,Study001_1001018,1001018,1001,8,195.0,105,ng/mL,3730,3730.0,ng/mL,PLASMA,27.0,Plasma,PLASMA,,101.0,TREATMENT PERIOD 1,24.0,Treatment period 1,TRTPR1,2012-10-30T09:35:00,1.0,1.5 HOURS POST DOSE,5.0,PT1.5H,DOSE,2012-10-30T08:05,1667203500.0,1.5,,1.5,A,105,OK,2012-10-30T08:05,2012-11-12,1668297600.0,25.0,25.0,YEARS,349.0,Years,YEARS,F,F,CAUCASIAN,CA,,HISPANIC OR LATINO,HIS,ABC,A / B /C,HISPANIC OR LATINO,100.0,CAUCASIAN,10.0,F,2.0,ABC,A / B /C,,,25/F/Ca,MOON/1001018,1.0,1.0,Y,Y,N,1.0,1.0,5.397605346934028e-79,19296.0,19296.0,C,C,3.0,3.0,1667203500.0,1667981160.0,29160.0,19305.0,19296.0,A / B /C,A / B /C,19309.0,PCCONC,PK concentration (ng/mL),DRUG ANAL 3 Plasma,PC_ANAL 3_NG/ML,5.0,1667203500.0,19296.0,29100.0,1667208900.0,19296.0,34500.0,3730.0,3730,17.270000000000007,GENERAL,5.397605346934028e-79,General,ANALYTE,1.0,Analyte,1.5 HOURS POST DOSE,DOSE,,,,1.0,1.0,A,A,PERIOD 1,1.0,1.0,1.0,A,1.0
195,Study001,Study001_1001018,1001018,1001,8,196.0,106,ng/mL,274,274.0,ng/mL,PLASMA,27.0,Plasma,PLASMA,,101.0,TREATMENT PERIOD 1,24.0,Treatment period 1,TRTPR1,2012-10-30T10:06:00,1.0,2 HOURS POST DOSE,6.0,PT2H,DOSE,2012-10-30T08:05,1667203500.0,2,,2.01666666,A,106,OK,2012-10-30T08:05,2012-11-12,1668297600.0,25.0,25.0,YEARS,349.0,Years,YEARS,F,F,CAUCASIAN,CA,,HISPANIC OR LATINO,HIS,ABC,A / B /C,HISPANIC OR LATINO,100.0,CAUCASIAN,10.0,F,2.0,ABC,A / B /C,,,25/F/Ca,MOON/1001018,1.0,1.0,Y,Y,N,1.0,1.0,5.397605346934028e-79,19296.0,19296.0,C,C,3.0,3.0,1667203500.0,1667981160.0,29160.0,19305.0,19296.0,A / B /C,A / B /C,19309.0,PCCONC,PK concentration (ng/mL),DRUG ANAL 1 Plasma,PC_ANAL 1_NG/ML,6.0,1667203500.0,19296.0,29100.0,1667210760.0,19296.0,36360.0,274.0,274,15.27,GENERAL,5.397605346934028e-79,General,ANALYTE,1.0,Analyte,2 HOURS POST DOSE,DOSE,,,,1.0,1.0,A,A,PERIOD 1,1.0,1.0,1.0,A,1.0
196,Study001,Study001_1001018,1001018,1001,8,197.0,106,ng/mL,22500,22500.0,ng/mL,PLASMA,27.0,Plasma,PLASMA,,101.0,TREATMENT PERIOD 1,24.0,Treatment period 1,TRTPR1,2012-10-30T10:06:00,1.0,2 HOURS POST DOSE,6.0,PT2H,DOSE,2012-10-30T08:05,1667203500.0,2,,2.01666666,A,106,OK,2012-10-30T08:05,2012-11-12,1668297600.0,25.0,25.0,YEARS,349.0,Years,YEARS,F,F,CAUCASIAN,CA,,HISPANIC OR LATINO,HIS,ABC,A / B /C,HISPANIC OR LATINO,100.0,CAUCASIAN,10.0,F,2.0,ABC,A / B /C,,,25/F/Ca,MOON/1001018,1.0,1.0,Y,Y,N,1.0,1.0,5.397605346934028e-79,19296.0,19296.0,C,C,3.0,3.0,1667203500.0,1667981160.0,29160.0,19305.0,19296.0,A / B /C,A / B /C,19309.0,PCCONC,PK concentration (ng/mL),DRUG ANAL 2 Plasma,PC_ANAL 2_NG/ML,6.0,1667203500.0,19296.0,29100.0,1667210760.0,19296.0,36360.0,22500.0,22500,16.270000000000007,GENERAL,5.397605346934028e-79,General,ANALYTE,1.0,Analyte,2 HOURS POST DOSE,DOSE,,,,1.0,1.0,A,A,PERIOD 1,1.0,1.0,1.0,A,1.0
197,Study001,Study001_1001018,1001018,1001,8,198.0,106,ng/mL,3910,3910.0,ng/mL,PLASMA,27.0,Plasma,PLASMA,,101.0,TREATMENT PERIOD 1,24.0,Treatment period 1,TRTPR1,2012-10-30T10:06:00,1.0,2 HOURS POST DOSE,6.0,PT2H,DOSE,2012-10-30T08:05,1667203500.0,2,,2.01666666,A,106,OK,2012-10-30T08:05,2012-11-12,1668297600.0,25.0,25.0,YEARS,349.0,Years,YEARS,F,F,CAUCASIAN,CA,,HISPANIC OR LATINO,HIS,ABC,A / B /C,HISPANIC OR LATINO,100.0,CAUCASIAN,10.0,F,2.0,ABC,A / B /C,,,25/F/Ca,MOON/1001018,1.0,1.0,Y,Y,N,1.0,1.0,5.397605346934028e-79,19296.0,19296.0,C,C,3.0,3.0,1667203500.0,1667981160.0,29160.0,19305.0,19296.0,A / B /C,A / B /C,19309.0,PCCONC,PK concentration (ng/mL),DRUG ANAL 3 Plasma,PC_ANAL 3_NG/ML,6.0,1667203500.0,19296.0,29100.0,1667210760.0,19296.0,36360.0,3910.0,3910,17.270000000000007,GENERAL,5.397605346934028e-79,General,ANALYTE,1.0,Analyte,2 HOURS POST DOSE,DOSE,,,,1.0,1.0,A,A,PERIOD 1,1.0,1.0,1.0,A,1.0
198,Study001,Study001_1001018,1001018,1001,8,199.0,107,ng/mL,      81.1,81.10000000000001,ng/mL,PLASMA,27.0,Plasma,PLASMA,,101.0,TREATMENT PERIOD 1,24.0,Treatment period 1,TRTPR1,2012-10-30T11:05:00,1.0,3 HOURS POST DOSE,7.0,PT3H,DOSE,2012-10-30T08:05,1667203500.0,3,,3,A,107,OK,2012-10-30T08:05,2012-11-12,1668297600.0,25.0,25.0,YEARS,349.0,Years,YEARS,F,F,CAUCASIAN,CA,,HISPANIC OR LATINO,HIS,ABC,A / B /C,HISPANIC OR LATINO,100.0,CAUCASIAN,10.0,F,2.0,ABC,A / B /C,,,25/F/Ca,MOON/1001018,1.0,1.0,Y,Y,N,1.0,1.0,5.397605346934028e-79,19296.0,19296.0,C,C,3.0,3.0,1667203500.0,1667981160.0,29160.0,19305.0,19296.0,A / B /C,A / B /C,19309.0,PCCONC,PK concentration (ng/mL),DRUG ANAL 1 Plasma,PC_ANAL 1_NG/ML,7.0,1667203500.0,19296.0,29100.0,1667214300.0,19296.0,39900.0,81.10000000000001,      81.1,15.27,GENERAL,5.397605346934028e-79,General,ANALYTE,1.0,Analyte,3 HOURS POST DOSE,DOSE,,,,1.0,1.0,A,A,PERIOD 1,1.0,1.0,1.0,A,1.0
199,Study001,Study001_1001018,1001018,1001,8,200.0,107,ng/mL,14700,14700.0,ng/mL,PLASMA,27.0,Plasma,PLASMA,,101.0,TREATMENT PERIOD 1,24.0,Treatment period 1,TRTPR1,2012-10-30T11:05:00,1.0,3 HOURS POST DOSE,7.0,PT3H,DOSE,2012-10-30T08:05,1667203500.0,3,,3,A,107,OK,2012-10-30T08:05,2012-11-12,1668297600.0,25.0,25.0,YEARS,349.0,Years,YEARS,F,F,CAUCASIAN,CA,,HISPANIC OR LATINO,HIS,ABC,A / B /C,HISPANIC OR LATINO,100.0,CAUCASIAN,10.0,F,2.0,ABC,A / B /C,,,25/F/Ca,MOON/1001018,1.0,1.0,Y,Y,N,1.0,1.0,5.397605346934028e-79,19296.0,19296.0,C,C,3.0,3.0,1667203500.0,1667981160.0,29160.0,19305.0,19296.0,A / B /C,A / B /C,19309.0,PCCONC,PK concentration (ng/mL),DRUG ANAL 2 Plasma,PC_ANAL 2_NG/ML,7.0,1667203500.0,19296.0,29100.0,1667214300.0,19296.0,39900.0,14700.0,14700,16.270000000000007,GENERAL,5.397605346934028e-79,General,ANALYTE,1.0,Analyte,3 HOURS POST DOSE,DOSE,,,,1.0,1.0,A,A,PERIOD 1,1.0,1.0,1.0,A,1.0
200,Study001,Study001_1001018,1001018,1001,8,201.0,107,ng/mL,2690,2690.0,ng/mL,PLASMA,27.0,Plasma,PLASMA,,101.0,TREATMENT PERIOD 1,24.0,Treatment period 1,TRTPR1,2012-10-30T11:05:00,1.0,3 HOURS POST DOSE,7.0,PT3H,DOSE,2012-10-30T08:05,1667203500.0,3,,3,A,107,OK,2012-10-30T08:05,2012-11-12,1668297600.0,25.0,25.0,YEARS,349.0,Years,YEARS,F,F,CAUCASIAN,CA,,HISPANIC OR LATINO,HIS,ABC,A / B /C,HISPANIC OR LATINO,100.0,CAUCASIAN,10.0,F,2.0,ABC,A / B /C,,,25/F/Ca,MOON/1001018,1.0,1.0,Y,Y,N,1.0,1.0,5.397605346934028e-79,19296.0,19296.0,C,C,3.0,3.0,1667203500.0,1667981160.0,29160.0,19305.0,19296.0,A / B /C,A / B /C,19309.0,PCCONC,PK concentration (ng/mL),DRUG ANAL 3 Plasma,PC_ANAL 3_NG/ML,7.0,1667203500.0,19296.0,29100.0,1667214300.0,19296.0,39900.0,2690.0,2690,17.270000000000007,GENERAL,5.397605346934028e-79,General,ANALYTE,1.0,Analyte,3 HOURS POST DOSE,DOSE,,,,1.0,1.0,A,A,PERIOD 1,1.0,1.0,1.0,A,1.0
201,Study001,Study001_1001018,1001018,1001,8,202.0,108,ng/mL,      34.5,34.5,ng/mL,PLASMA,27.0,Plasma,PLASMA,,101.0,TREATMENT PERIOD 1,24.0,Treatment period 1,TRTPR1,2012-10-30T12:05:00,1.0,4 HOURS POST DOSE,8.0,PT4H,DOSE,2012-10-30T08:05,1667203500.0,4,,4,A,108,OK,2012-10-30T08:05,2012-11-12,1668297600.0,25.0,25.0,YEARS,349.0,Years,YEARS,F,F,CAUCASIAN,CA,,HISPANIC OR LATINO,HIS,ABC,A / B /C,HISPANIC OR LATINO,100.0,CAUCASIAN,10.0,F,2.0,ABC,A / B /C,,,25/F/Ca,MOON/1001018,1.0,1.0,Y,Y,N,1.0,1.0,5.397605346934028e-79,19296.0,19296.0,C,C,3.0,3.0,1667203500.0,1667981160.0,29160.0,19305.0,19296.0,A / B /C,A / B /C,19309.0,PCCONC,PK concentration (ng/mL),DRUG ANAL 1 Plasma,PC_ANAL 1_NG/ML,8.0,1667203500.0,19296.0,29100.0,1667217900.0,19296.0,43500.0,34.5,      34.5,15.27,GENERAL,5.397605346934028e-79,General,ANALYTE,1.0,Analyte,4 HOURS POST DOSE,DOSE,,,,1.0,1.0,A,A,PERIOD 1,1.0,1.0,1.0,A,1.0
202,Study001,Study001_1001018,1001018,1001,8,203.0,108,ng/mL,14300,14300.0,ng/mL,PLASMA,27.0,Plasma,PLASMA,,101.0,TREATMENT PERIOD 1,24.0,Treatment period 1,TRTPR1,2012-10-30T12:05:00,1.0,4 HOURS POST DOSE,8.0,PT4H,DOSE,2012-10-30T08:05,1667203500.0,4,,4,A,108,OK,2012-10-30T08:05,2012-11-12,1668297600.0,25.0,25.0,YEARS,349.0,Years,YEARS,F,F,CAUCASIAN,CA,,HISPANIC OR LATINO,HIS,ABC,A / B /C,HISPANIC OR LATINO,100.0,CAUCASIAN,10.0,F,2.0,ABC,A / B /C,,,25/F/Ca,MOON/1001018,1.0,1.0,Y,Y,N,1.0,1.0,5.397605346934028e-79,19296.0,19296.0,C,C,3.0,3.0,1667203500.0,1667981160.0,29160.0,19305.0,19296.0,A / B /C,A / B /C,19309.0,PCCONC,PK concentration (ng/mL),DRUG ANAL 2 Plasma,PC_ANAL 2_NG/ML,8.0,1667203500.0,19296.0,29100.0,1667217900.0,19296.0,43500.0,14300.0,14300,16.270000000000007,GENERAL,5.397605346934028e-79,General,ANALYTE,1.0,Analyte,4 HOURS POST DOSE,DOSE,,,,1.0,1.0,A,A,PERIOD 1,1.0,1.0,1.0,A,1.0
203,Study001,Study001_1001018,1001018,1001,8,204.0,108,ng/mL,2760,2760.0,ng/mL,PLASMA,27.0,Plasma,PLASMA,,101.0,TREATMENT PERIOD 1,24.0,Treatment period 1,TRTPR1,2012-10-30T12:05:00,1.0,4 HOURS POST DOSE,8.0,PT4H,DOSE,2012-10-30T08:05,1667203500.0,4,,4,A,108,OK,2012-10-30T08:05,2012-11-12,1668297600.0,25.0,25.0,YEARS,349.0,Years,YEARS,F,F,CAUCASIAN,CA,,HISPANIC OR LATINO,HIS,ABC,A / B /C,HISPANIC OR LATINO,100.0,CAUCASIAN,10.0,F,2.0,ABC,A / B /C,,,25/F/Ca,MOON/1001018,1.0,1.0,Y,Y,N,1.0,1.0,5.397605346934028e-79,19296.0,19296.0,C,C,3.0,3.0,1667203500.0,1667981160.0,29160.0,19305.0,19296.0,A / B /C,A / B /C,19309.0,PCCONC,PK concentration (ng/mL),DRUG ANAL 3 Plasma,PC_ANAL 3_NG/ML,8.0,1667203500.0,19296.0,29100.0,1667217900.0,19296.0,43500.0,2760.0,2760,17.270000000000007,GENERAL,5.397605346934028e-79,General,ANALYTE,1.0,Analyte,4 HOURS POST DOSE,DOSE,,,,1.0,1.0,A,A,PERIOD 1,1.0,1.0,1.0,A,1.0
204,Study001,Study001_1001018,1001018,1001,8,205.0,109,ng/mL,16,16.0,ng/mL,PLASMA,27.0,Plasma,PLASMA,,101.0,TREATMENT PERIOD 1,24.0,Treatment period 1,TRTPR1,2012-10-30T14:05:00,1.0,6 HOURS POST DOSE,9.0,PT6H,DOSE,2012-10-30T08:05,1667203500.0,6,,6,A,109,OK,2012-10-30T08:05,2012-11-12,1668297600.0,25.0,25.0,YEARS,349.0,Years,YEARS,F,F,CAUCASIAN,CA,,HISPANIC OR LATINO,HIS,ABC,A / B /C,HISPANIC OR LATINO,100.0,CAUCASIAN,10.0,F,2.0,ABC,A / B /C,,,25/F/Ca,MOON/1001018,1.0,1.0,Y,Y,N,1.0,1.0,5.397605346934028e-79,19296.0,19296.0,C,C,3.0,3.0,1667203500.0,1667981160.0,29160.0,19305.0,19296.0,A / B /C,A / B /C,19309.0,PCCONC,PK concentration (ng/mL),DRUG ANAL 1 Plasma,PC_ANAL 1_NG/ML,9.0,1667203500.0,19296.0,29100.0,1667225100.0,19296.0,50700.0,16.0,16,15.27,GENERAL,5.397605346934028e-79,General,ANALYTE,1.0,Analyte,6 HOURS POST DOSE,DOSE,,,,1.0,1.0,A,A,PERIOD 1,1.0,1.0,1.0,A,1.0
205,Study001,Study001_1001018,1001018,1001,8,206.0,109,ng/mL,11500,11500.0,ng/mL,PLASMA,27.0,Plasma,PLASMA,,101.0,TREATMENT PERIOD 1,24.0,Treatment period 1,TRTPR1,2012-10-30T14:05:00,1.0,6 HOURS POST DOSE,9.0,PT6H,DOSE,2012-10-30T08:05,1667203500.0,6,,6,A,109,OK,2012-10-30T08:05,2012-11-12,1668297600.0,25.0,25.0,YEARS,349.0,Years,YEARS,F,F,CAUCASIAN,CA,,HISPANIC OR LATINO,HIS,ABC,A / B /C,HISPANIC OR LATINO,100.0,CAUCASIAN,10.0,F,2.0,ABC,A / B /C,,,25/F/Ca,MOON/1001018,1.0,1.0,Y,Y,N,1.0,1.0,5.397605346934028e-79,19296.0,19296.0,C,C,3.0,3.0,1667203500.0,1667981160.0,29160.0,19305.0,19296.0,A / B /C,A / B /C,19309.0,PCCONC,PK concentration (ng/mL),DRUG ANAL 2 Plasma,PC_ANAL 2_NG/ML,9.0,1667203500.0,19296.0,29100.0,1667225100.0,19296.0,50700.0,11500.0,11500,16.270000000000007,GENERAL,5.397605346934028e-79,General,ANALYTE,1.0,Analyte,6 HOURS POST DOSE,DOSE,,,,1.0,1.0,A,A,PERIOD 1,1.0,1.0,1.0,A,1.0
206,Study001,Study001_1001018,1001018,1001,8,207.0,109,ng/mL,1460,1460.0,ng/mL,PLASMA,27.0,Plasma,PLASMA,,101.0,TREATMENT PERIOD 1,24.0,Treatment period 1,TRTPR1,2012-10-30T14:05:00,1.0,6 HOURS POST DOSE,9.0,PT6H,DOSE,2012-10-30T08:05,1667203500.0,6,,6,A,109,OK,2012-10-30T08:05,2012-11-12,1668297600.0,25.0,25.0,YEARS,349.0,Years,YEARS,F,F,CAUCASIAN,CA,,HISPANIC OR LATINO,HIS,ABC,A / B /C,HISPANIC OR LATINO,100.0,CAUCASIAN,10.0,F,2.0,ABC,A / B /C,,,25/F/Ca,MOON/1001018,1.0,1.0,Y,Y,N,1.0,1.0,5.397605346934028e-79,19296.0,19296.0,C,C,3.0,3.0,1667203500.0,1667981160.0,29160.0,19305.0,19296.0,A / B /C,A / B /C,19309.0,PCCONC,PK concentration (ng/mL),DRUG ANAL 3 Plasma,PC_ANAL 3_NG/ML,9.0,1667203500.0,19296.0,29100.0,1667225100.0,19296.0,50700.0,1460.0,1460,17.270000000000007,GENERAL,5.397605346934028e-79,General,ANALYTE,1.0,Analyte,6 HOURS POST DOSE,DOSE,,,,1.0,1.0,A,A,PERIOD 1,1.0,1.0,1.0,A,1.0
207,Study001,Study001_1001018,1001018,1001,8,208.0,110,ng/mL,      5.59,5.59,ng/mL,PLASMA,27.0,Plasma,PLASMA,,101.0,TREATMENT PERIOD 1,24.0,Treatment period 1,TRTPR1,2012-10-30T16:05:00,1.0,8 HOURS POST DOSE,10.0,PT8H,DOSE,2012-10-30T08:05,1667203500.0,8,,8,A,110,OK,2012-10-30T08:05,2012-11-12,1668297600.0,25.0,25.0,YEARS,349.0,Years,YEARS,F,F,CAUCASIAN,CA,,HISPANIC OR LATINO,HIS,ABC,A / B /C,HISPANIC OR LATINO,100.0,CAUCASIAN,10.0,F,2.0,ABC,A / B /C,,,25/F/Ca,MOON/1001018,1.0,1.0,Y,Y,N,1.0,1.0,5.397605346934028e-79,19296.0,19296.0,C,C,3.0,3.0,1667203500.0,1667981160.0,29160.0,19305.0,19296.0,A / B /C,A / B /C,19309.0,PCCONC,PK concentration (ng/mL),DRUG ANAL 1 Plasma,PC_ANAL 1_NG/ML,10.0,1667203500.0,19296.0,29100.0,1667232300.0,19296.0,57900.0,5.59,      5.59,15.27,GENERAL,5.397605346934028e-79,General,ANALYTE,1.0,Analyte,8 HOURS POST DOSE,DOSE,,,,1.0,1.0,A,A,PERIOD 1,1.0,1.0,1.0,A,1.0
208,Study001,Study001_1001018,1001018,1001,8,209.0,110,ng/mL,7940,7940.0,ng/mL,PLASMA,27.0,Plasma,PLASMA,,101.0,TREATMENT PERIOD 1,24.0,Treatment period 1,TRTPR1,2012-10-30T16:05:00,1.0,8 HOURS POST DOSE,10.0,PT8H,DOSE,2012-10-30T08:05,1667203500.0,8,,8,A,110,OK,2012-10-30T08:05,2012-11-12,1668297600.0,25.0,25.0,YEARS,349.0,Years,YEARS,F,F,CAUCASIAN,CA,,HISPANIC OR LATINO,HIS,ABC,A / B /C,HISPANIC OR LATINO,100.0,CAUCASIAN,10.0,F,2.0,ABC,A / B /C,,,25/F/Ca,MOON/1001018,1.0,1.0,Y,Y,N,1.0,1.0,5.397605346934028e-79,19296.0,19296.0,C,C,3.0,3.0,1667203500.0,1667981160.0,29160.0,19305.0,19296.0,A / B /C,A / B /C,19309.0,PCCONC,PK concentration (ng/mL),DRUG ANAL 2 Plasma,PC_ANAL 2_NG/ML,10.0,1667203500.0,19296.0,29100.0,1667232300.0,19296.0,57900.0,7940.0,7940,16.270000000000007,GENERAL,5.397605346934028e-79,General,ANALYTE,1.0,Analyte,8 HOURS POST DOSE,DOSE,,,,1.0,1.0,A,A,PERIOD 1,1.0,1.0,1.0,A,1.0
209,Study001,Study001_1001018,1001018,1001,8,210.0,110,ng/mL,808,808.0,ng/mL,PLASMA,27.0,Plasma,PLASMA,,101.0,TREATMENT PERIOD 1,24.0,Treatment period 1,TRTPR1,2012-10-30T16:05:00,1.0,8 HOURS POST DOSE,10.0,PT8H,DOSE,2012-10-30T08:05,1667203500.0,8,,8,A,110,OK,2012-10-30T08:05,2012-11-12,1668297600.0,25.0,25.0,YEARS,349.0,Years,YEARS,F,F,CAUCASIAN,CA,,HISPANIC OR LATINO,HIS,ABC,A / B /C,HISPANIC OR LATINO,100.0,CAUCASIAN,10.0,F,2.0,ABC,A / B /C,,,25/F/Ca,MOON/1001018,1.0,1.0,Y,Y,N,1.0,1.0,5.397605346934028e-79,19296.0,19296.0,C,C,3.0,3.0,1667203500.0,1667981160.0,29160.0,19305.0,19296.0,A / B /C,A / B /C,19309.0,PCCONC,PK concentration (ng/mL),DRUG ANAL 3 Plasma,PC_ANAL 3_NG/ML,10.0,1667203500.0,19296.0,29100.0,1667232300.0,19296.0,57900.0,808.0,808,17.270000000000007,GENERAL,5.397605346934028e-79,General,ANALYTE,1.0,Analyte,8 HOURS POST DOSE,DOSE,,,,1.0,1.0,A,A,PERIOD 1,1.0,1.0,1.0,A,1.0
210,Study001,Study001_1001018,1001018,1001,8,211.0,111,ng/mL,       1.5,1.5,ng/mL,PLASMA,27.0,Plasma,PLASMA,,101.0,TREATMENT PERIOD 1,24.0,Treatment period 1,TRTPR1,2012-10-30T20:05:00,1.0,12 HOURS POST DOSE,11.0,PT12H,DOSE,2012-10-30T08:05,1667203500.0,12,,12,A,111,OK,2012-10-30T08:05,2012-11-12,1668297600.0,25.0,25.0,YEARS,349.0,Years,YEARS,F,F,CAUCASIAN,CA,,HISPANIC OR LATINO,HIS,ABC,A / B /C,HISPANIC OR LATINO,100.0,CAUCASIAN,10.0,F,2.0,ABC,A / B /C,,,25/F/Ca,MOON/1001018,1.0,1.0,Y,Y,N,1.0,1.0,5.397605346934028e-79,19296.0,19296.0,C,C,3.0,3.0,1667203500.0,1667981160.0,29160.0,19305.0,19296.0,A / B /C,A / B /C,19309.0,PCCONC,PK concentration (ng/mL),DRUG ANAL 1 Plasma,PC_ANAL 1_NG/ML,11.0,1667203500.0,19296.0,29100.0,1667246700.0,19296.0,72300.0,1.5,       1.5,15.27,GENERAL,5.397605346934028e-79,General,ANALYTE,1.0,Analyte,12 HOURS POST DOSE,DOSE,,,,1.0,1.0,A,A,PERIOD 1,1.0,1.0,1.0,A,1.0
211,Study001,Study001_1001018,1001018,1001,8,212.0,111,ng/mL,5130,5130.0,ng/mL,PLASMA,27.0,Plasma,PLASMA,,101.0,TREATMENT PERIOD 1,24.0,Treatment period 1,TRTPR1,2012-10-30T20:05:00,1.0,12 HOURS POST DOSE,11.0,PT12H,DOSE,2012-10-30T08:05,1667203500.0,12,,12,A,111,OK,2012-10-30T08:05,2012-11-12,1668297600.0,25.0,25.0,YEARS,349.0,Years,YEARS,F,F,CAUCASIAN,CA,,HISPANIC OR LATINO,HIS,ABC,A / B /C,HISPANIC OR LATINO,100.0,CAUCASIAN,10.0,F,2.0,ABC,A / B /C,,,25/F/Ca,MOON/1001018,1.0,1.0,Y,Y,N,1.0,1.0,5.397605346934028e-79,19296.0,19296.0,C,C,3.0,3.0,1667203500.0,1667981160.0,29160.0,19305.0,19296.0,A / B /C,A / B /C,19309.0,PCCONC,PK concentration (ng/mL),DRUG ANAL 2 Plasma,PC_ANAL 2_NG/ML,11.0,1667203500.0,19296.0,29100.0,1667246700.0,19296.0,72300.0,5130.0,5130,16.270000000000007,GENERAL,5.397605346934028e-79,General,ANALYTE,1.0,Analyte,12 HOURS POST DOSE,DOSE,,,,1.0,1.0,A,A,PERIOD 1,1.0,1.0,1.0,A,1.0
212,Study001,Study001_1001018,1001018,1001,8,213.0,111,ng/mL,370,370.0,ng/mL,PLASMA,27.0,Plasma,PLASMA,,101.0,TREATMENT PERIOD 1,24.0,Treatment period 1,TRTPR1,2012-10-30T20:05:00,1.0,12 HOURS POST DOSE,11.0,PT12H,DOSE,2012-10-30T08:05,1667203500.0,12,,12,A,111,OK,2012-10-30T08:05,2012-11-12,1668297600.0,25.0,25.0,YEARS,349.0,Years,YEARS,F,F,CAUCASIAN,CA,,HISPANIC OR LATINO,HIS,ABC,A / B /C,HISPANIC OR LATINO,100.0,CAUCASIAN,10.0,F,2.0,ABC,A / B /C,,,25/F/Ca,MOON/1001018,1.0,1.0,Y,Y,N,1.0,1.0,5.397605346934028e-79,19296.0,19296.0,C,C,3.0,3.0,1667203500.0,1667981160.0,29160.0,19305.0,19296.0,A / B /C,A / B /C,19309.0,PCCONC,PK concentration (ng/mL),DRUG ANAL 3 Plasma,PC_ANAL 3_NG/ML,11.0,1667203500.0,19296.0,29100.0,1667246700.0,19296.0,72300.0,370.0,370,17.270000000000007,GENERAL,5.397605346934028e-79,General,ANALYTE,1.0,Analyte,12 HOURS POST DOSE,DOSE,,,,1.0,1.0,A,A,PERIOD 1,1.0,1.0,1.0,A,1.0
213,Study001,Study001_1001018,1001018,1001,8,214.0,112,ng/mL,0,5.397605346934028e-79,ng/mL,PLASMA,27.0,Plasma,PLASMA,1.0,102.0,TREATMENT PERIOD 1,24.0,Treatment period 1,TRTPR1,2012-10-31T08:05:00,2.0,24 HOURS POST DOSE,12.0,PT24H,DOSE,2012-10-30T08:05,1667203500.0,24,,24,A,112,OK,2012-10-30T08:05,2012-11-12,1668297600.0,25.0,25.0,YEARS,349.0,Years,YEARS,F,F,CAUCASIAN,CA,,HISPANIC OR LATINO,HIS,ABC,A / B /C,HISPANIC OR LATINO,100.0,CAUCASIAN,10.0,F,2.0,ABC,A / B /C,,,25/F/Ca,MOON/1001018,1.0,1.0,Y,Y,N,1.0,1.0,5.397605346934028e-79,19296.0,19296.0,C,C,3.0,3.0,1667203500.0,1667981160.0,29160.0,19305.0,19296.0,A / B /C,A / B /C,19309.0,PCCONC,PK concentration (ng/mL),DRUG ANAL 1 Plasma,PC_ANAL 1_NG/ML,12.0,1667203500.0,19296.0,29100.0,1667289900.0,19297.0,29100.0,5.397605346934028e-79,0,15.27,GENERAL,5.397605346934028e-79,General,ANALYTE,1.0,Analyte,24 HOURS POST DOSE,DOSE,,,,1.0,2.0,A,A,PERIOD 1,1.0,1.0,1.0,A,2.0
214,Study001,Study001_1001018,1001018,1001,8,215.0,112,ng/mL,2020,2020.0,ng/mL,PLASMA,27.0,Plasma,PLASMA,,102.0,TREATMENT PERIOD 1,24.0,Treatment period 1,TRTPR1,2012-10-31T08:05:00,2.0,24 HOURS POST DOSE,12.0,PT24H,DOSE,2012-10-30T08:05,1667203500.0,24,,24,A,112,OK,2012-10-30T08:05,2012-11-12,1668297600.0,25.0,25.0,YEARS,349.0,Years,YEARS,F,F,CAUCASIAN,CA,,HISPANIC OR LATINO,HIS,ABC,A / B /C,HISPANIC OR LATINO,100.0,CAUCASIAN,10.0,F,2.0,ABC,A / B /C,,,25/F/Ca,MOON/1001018,1.0,1.0,Y,Y,N,1.0,1.0,5.397605346934028e-79,19296.0,19296.0,C,C,3.0,3.0,1667203500.0,1667981160.0,29160.0,19305.0,19296.0,A / B /C,A / B /C,19309.0,PCCONC,PK concentration (ng/mL),DRUG ANAL 2 Plasma,PC_ANAL 2_NG/ML,12.0,1667203500.0,19296.0,29100.0,1667289900.0,19297.0,29100.0,2020.0,2020,16.270000000000007,GENERAL,5.397605346934028e-79,General,ANALYTE,1.0,Analyte,24 HOURS POST DOSE,DOSE,,,,1.0,2.0,A,A,PERIOD 1,1.0,1.0,1.0,A,2.0
215,Study001,Study001_1001018,1001018,1001,8,216.0,112,ng/mL,      76.7,76.7,ng/mL,PLASMA,27.0,Plasma,PLASMA,,102.0,TREATMENT PERIOD 1,24.0,Treatment period 1,TRTPR1,2012-10-31T08:05:00,2.0,24 HOURS POST DOSE,12.0,PT24H,DOSE,2012-10-30T08:05,1667203500.0,24,,24,A,112,OK,2012-10-30T08:05,2012-11-12,1668297600.0,25.0,25.0,YEARS,349.0,Years,YEARS,F,F,CAUCASIAN,CA,,HISPANIC OR LATINO,HIS,ABC,A / B /C,HISPANIC OR LATINO,100.0,CAUCASIAN,10.0,F,2.0,ABC,A / B /C,,,25/F/Ca,MOON/1001018,1.0,1.0,Y,Y,N,1.0,1.0,5.397605346934028e-79,19296.0,19296.0,C,C,3.0,3.0,1667203500.0,1667981160.0,29160.0,19305.0,19296.0,A / B /C,A / B /C,19309.0,PCCONC,PK concentration (ng/mL),DRUG ANAL 3 Plasma,PC_ANAL 3_NG/ML,12.0,1667203500.0,19296.0,29100.0,1667289900.0,19297.0,29100.0,76.7,      76.7,17.270000000000007,GENERAL,5.397605346934028e-79,General,ANALYTE,1.0,Analyte,24 HOURS POST DOSE,DOSE,,,,1.0,2.0,A,A,PERIOD 1,1.0,1.0,1.0,A,2.0
216,Study001,Study001_1001018,1001018,1001,8,217.0,113,ng/mL,0,5.397605346934028e-79,ng/mL,PLASMA,27.0,Plasma,PLASMA,1.0,103.0,TREATMENT PERIOD 1,24.0,Treatment period 1,TRTPR1,2012-11-01T08:05:00,3.0,48 HOURS POST DOSE,13.0,PT48H,DOSE,2012-10-30T08:05,1667203500.0,48,,48,A,113,OK,2012-10-30T08:05,2012-11-12,1668297600.0,25.0,25.0,YEARS,349.0,Years,YEARS,F,F,CAUCASIAN,CA,,HISPANIC OR LATINO,HIS,ABC,A / B /C,HISPANIC OR LATINO,100.0,CAUCASIAN,10.0,F,2.0,ABC,A / B /C,,,25/F/Ca,MOON/1001018,1.0,1.0,Y,Y,N,1.0,1.0,5.397605346934028e-79,19296.0,19296.0,C,C,3.0,3.0,1667203500.0,1667981160.0,29160.0,19305.0,19296.0,A / B /C,A / B /C,19309.0,PCCONC,PK concentration (ng/mL),DRUG ANAL 1 Plasma,PC_ANAL 1_NG/ML,13.0,1667203500.0,19296.0,29100.0,1667376300.0,19298.0,29100.0,5.397605346934028e-79,0,15.27,GENERAL,5.397605346934028e-79,General,ANALYTE,1.0,Analyte,48 HOURS POST DOSE,DOSE,,,,1.0,3.0,A,A,PERIOD 1,1.0,1.0,1.0,A,3.0
217,Study001,Study001_1001018,1001018,1001,8,218.0,113,ng/mL,314,314.0,ng/mL,PLASMA,27.0,Plasma,PLASMA,,103.0,TREATMENT PERIOD 1,24.0,Treatment period 1,TRTPR1,2012-11-01T08:05:00,3.0,48 HOURS POST DOSE,13.0,PT48H,DOSE,2012-10-30T08:05,1667203500.0,48,,48,A,113,OK,2012-10-30T08:05,2012-11-12,1668297600.0,25.0,25.0,YEARS,349.0,Years,YEARS,F,F,CAUCASIAN,CA,,HISPANIC OR LATINO,HIS,ABC,A / B /C,HISPANIC OR LATINO,100.0,CAUCASIAN,10.0,F,2.0,ABC,A / B /C,,,25/F/Ca,MOON/1001018,1.0,1.0,Y,Y,N,1.0,1.0,5.397605346934028e-79,19296.0,19296.0,C,C,3.0,3.0,1667203500.0,1667981160.0,29160.0,19305.0,19296.0,A / B /C,A / B /C,19309.0,PCCONC,PK concentration (ng/mL),DRUG ANAL 2 Plasma,PC_ANAL 2_NG/ML,13.0,1667203500.0,19296.0,29100.0,1667376300.0,19298.0,29100.0,314.0,314,16.270000000000007,GENERAL,5.397605346934028e-79,General,ANALYTE,1.0,Analyte,48 HOURS POST DOSE,DOSE,,,,1.0,3.0,A,A,PERIOD 1,1.0,1.0,1.0,A,3.0
