USUBJID,SITEID,SITE,AGE,SEX,RACE,TRTA,RFSTDTC,SAFFL,ASEQ,ASTDT,ASTDY,AENDT,AENDY,AETERM,AEDECOD,AEBODSYS,AESER,AEONGO,AESEV,AEREL,AEOUT,AESEQ
01-001,1,Site 01,30,F,Other/Mixed,Placebo,2015-05-21,Y,1,2015-07-16,57,2015-08-14,86,Difference between the lengths of the arms and/or legs,Unequal limb length,Musculoskeletal and connective tissu disorders,N,N,MODERATE,UNLIKELY RELATED,RECOVERED,1
01-002,1,Site 01,24,F,Black,Treatment A,2015-05-30,Y,1,2015-07-02,34,2015-07-16,48,Decreased blood level of phosphate,Hypophosphatemia,Metabolism and nutrition disorders,N,Y,SEVERE,PROBABLY RELATED,RECOVERED,1
01-002,1,Site 01,24,F,Black,Treatment A,2015-05-30,Y,2,2015-11-18,173,2016-05-06,343,Infection of clear front part of the eyeball (cornea,Corneal infection,Infections and infestations,N,Y,MILD,NOT RELATED,RECOVERED,2
01-002,1,Site 01,24,F,Black,Treatment A,2015-05-30,Y,3,2015-11-27,182,2016-05-02,339,Muscle pain,Myalgia,Musculoskeletal and connective tissu disorders,Y,Y,MILD,NOT RELATED,RECOVERED,3
01-002,1,Site 01,24,F,Black,Treatment A,2015-05-30,Y,4,2015-12-19,204,2016-05-25,362,Infection of the vulva (external female genitalia,Vulval infection,Infections and infestations,N,Y,SEVERE,UNLIKELY RELATED,RECOVERED,4
01-002,1,Site 01,24,F,Black,Treatment A,2015-05-30,Y,5,2016-03-23,299,2016-04-12,319,Swelling of the trunk of the body,Edema trunk,General disorders and administration sit conditions,N,N,MILD,POSSIBLY RELATED,"RESOLVED, RECOVERED",5
01-003,1,Site 01,43,F,Hispanic,Placebo,2015-08-14,Y,1,2015-09-11,29,2016-03-02,202,High level of hormone of the parathyroid glands causing high bloo calcium levels (hypercalemia) and low blood phosphate (hypophosphaemia),Hyperparathyroidism,Endocrine disorders,N,N,MILD,NOT RELATED,"RESOLVED, RECOVERED",1
01-003,1,Site 01,43,F,Hispanic,Placebo,2015-08-14,Y,2,2016-01-03,143,2016-01-12,152,"Burning or tingling sensation on the lips, tongue, or entire mouth",Oral dysesthesia,Gastrointestinal disorders,N,N,MODERATE,PROBABLY RELATED,"RESOLVED, RECOVERED",2
01-003,1,Site 01,43,F,Hispanic,Placebo,2015-08-14,Y,3,2016-06-13,305,2016-06-21,313,Bleeding in the belly,Intra-abdominal hemorrhage,Gastrointestinal disorders,Y,Y,MODERATE,NOT RELATED,RECOVERED,3
01-004,1,Site 01,42,F,Hispanic,Placebo,2015-01-13,Y,,,,,,,,,,,,,,
01-005,1,Site 01,30,M,White,Treatment B,2015-12-27,Y,1,2016-07-31,218,2016-11-15,325,Decreased production of blood cells by the bone marrow,Myelodysplastic syndrome,"Neoplasms benign, malignant an unspecified (incl cysts and polyps)",N,N,MODERATE,POSSIBLY RELATED,RECOVERED,1
01-006,1,Site 01,23,M,White,Placebo,2015-05-12,N,,,,,,,,,,,,,,
01-007,1,Site 01,20,M,Other/Mixed,Treatment A,2015-09-11,N,,,,,,,,,,,,,,
01-008,1,Site 01,29,F,Hispanic,Treatment B,2015-02-14,Y,1,2015-03-21,36,2015-05-12,88,Chills,Chills,General disorders and administration sit conditions,N,N,MILD,POSSIBLY RELATED,RESOLVED WITHOUT SEQUELAE,1
01-009,1,Site 01,53,F,Black,Treatment B,2015-11-22,Y,1,2016-01-23,63,2016-01-28,68,Abnormally fast regular heartbeat involving the upper chambers o the heart (atria),Atrial flutter,Cardiac disorders,N,N,MILD,NOT RELATED,"RESOLVED, RECOVERED",1
01-009,1,Site 01,53,F,Black,Treatment B,2015-11-22,Y,2,2016-02-04,75,2016-04-18,149,Weakness or paralysis (loss of muscle function) caused by damage to peripheral nerves (those nerves outside of brain and spinal cord),Peripheral motor neuropathy,Nervous system disorders,N,N,MILD,POSSIBLY RELATED,"RESOLVED, RECOVERED",2
01-009,1,Site 01,53,F,Black,Treatment B,2015-11-22,Y,3,2016-03-27,127,2016-08-27,280,Sore (ulcer) in the lining of the rectum,Rectal ulcer,Gastrointestinal disorders,N,Y,MODERATE,UNLIKELY RELATED,RESOLVED WITHOUT SEQUELAE,3
01-009,1,Site 01,53,F,Black,Treatment B,2015-11-22,Y,4,2016-08-22,275,2016-10-14,328,Damage to the spleen during surgery,Intraoperative splenic injury,"Injury, poisoning and procedura complications",N,Y,MILD,DEFINITELY RELATED,RECOVERED,4
01-009,1,Site 01,53,F,Black,Treatment B,2015-11-22,Y,5,2016-10-24,338,2016-11-04,349,Pain in the prostate,Prostatic pain,Reproductive system and breast disorders,N,N,SEVERE,POSSIBLY RELATED,RECOVERED,5
01-010,1,Site 01,35,F,Black,Treatment B,2015-01-07,Y,,,,,,,,,,,,,,
01-011,1,Site 01,33,F,Other/Mixed,Treatment A,2015-10-04,Y,1,2015-12-22,80,2015-12-27,85,Abnormal hole between part of the urinary system and anothe organ or tissue,Urinary fistula,Renal and urinary disorders,N,N,MILD,POSSIBLY RELATED,RECOVERED,1
01-012,1,Site 01,36,M,White,Placebo,2015-04-19,Y,,,,,,,,,,,,,,
01-013,1,Site 01,40,F,White,Treatment A,2015-07-15,Y,1,2016-04-01,262,2016-04-05,266,Growth greater than expected for age,Growth accelerated,Endocrine disorders,N,Y,MODERATE,UNLIKELY RELATED,RECOVERED,1
01-013,1,Site 01,40,F,White,Treatment A,2015-07-15,Y,2,2016-06-09,331,2016-06-29,351,Deformity of the musculoskeletal system (relating to muscles an the skeleton),Musculoskeletal deformity,Musculoskeletal and connective tissu disorders,N,N,MILD,POSSIBLY RELATED,RESOLVED WITH SEQUELAE,2
01-014,1,Site 01,32,M,White,Treatment B,2015-12-30,Y,1,2016-05-27,150,2016-05-27,150,Abnormally increased inward curve of the lumbar spine (just abov the buttocks),Lordosis,Musculoskeletal and connective tissu disorders,N,Y,MODERATE,NOT RELATED,"RESOLVED, RECOVERED",1
01-014,1,Site 01,32,M,White,Treatment B,2015-12-30,Y,2,2016-06-12,166,2016-07-22,206,Burn,Burn,"Injury, poisoning and procedura complications",N,Y,SEVERE,POSSIBLY RELATED,"RESOLVED, RECOVERED",2
01-014,1,Site 01,32,M,White,Treatment B,2015-12-30,Y,3,2016-07-16,200,2016-12-24,361,Enlarged breasts in males,Gynecomastia,Reproductive system and breast disorders,N,N,MILD,PROBABLY RELATED,RESOLVED WITHOUT SEQUELAE,3
01-014,1,Site 01,32,M,White,Treatment B,2015-12-30,Y,4,2016-09-04,250,2016-10-24,300,"Loss of muscle coordination; awkward, uncoordinated walking unsteadiness when walking",Ataxia,Nervous system disorders,N,N,MILD,PROBABLY RELATED,RECOVERED,4
01-015,1,Site 01,37,M,Black,Treatment A,2015-07-25,N,,,,,,,,,,,,,,
01-016,1,Site 01,18,M,Black,Treatment A,2015-12-21,Y,1,2016-02-10,52,2016-07-22,215,"Problem of the inner ear that can cause dizziness, imbalance nausea, and vision problems",Vestibular disorder,Ear and labyrinth disorders,N,N,MILD,DEFINITELY RELATED,RECOVERED,1
01-016,1,Site 01,18,M,Black,Treatment A,2015-12-21,Y,2,2016-03-18,89,2016-10-18,303,Bleeding after surgery,Postoperative hemorrhage,"Injury, poisoning and procedura complications",N,Y,MILD,POSSIBLY RELATED,RECOVERED,2
01-016,1,Site 01,18,M,Black,Treatment A,2015-12-21,Y,3,2016-04-08,110,2016-06-27,190,Decreased blood sugar level,Hypoglycemia,Metabolism and nutrition disorders,N,Y,MILD,PROBABLY RELATED,RECOVERED,3
01-017,1,Site 01,40,M,Hispanic,Treatment A,2015-02-12,Y,1,2015-05-07,85,2015-07-26,165,Memory loss,Amnesia,Nervous system disorders,N,Y,MODERATE,UNLIKELY RELATED,"RESOLVED, RECOVERED",1
01-017,1,Site 01,40,M,Hispanic,Treatment A,2015-02-12,Y,2,2015-10-27,258,2015-12-14,306,Inability of the adrenal glands (triangle-shaped glands located on top of the kidneys) to produce a normal quantity of hormones,Adrenal insufficiency,Endocrine disorders,Y,N,MODERATE,POSSIBLY RELATED,RESOLVED WITH SEQUELAE,2
01-017,1,Site 01,40,M,Hispanic,Treatment A,2015-02-12,Y,3,2015-11-15,277,2016-01-19,342,Pain of  the scrotum or its contents (testes),Scrotal pain,Reproductive system and breast disorders,N,N,MODERATE,UNLIKELY RELATED,RECOVERED,3
01-018,1,Site 01,18,M,Hispanic,Treatment B,2015-12-13,Y,1,2016-01-05,24,2016-02-22,72,Vaginal infection,Vaginal infection,Infections and infestations,N,N,MODERATE,NOT RELATED,RESOLVED WITHOUT SEQUELAE,1
01-018,1,Site 01,18,M,Hispanic,Treatment B,2015-12-13,Y,2,2016-03-25,104,2016-12-06,360,Tearing or disruption of the ovarian tissue,Ovarian rupture,Reproductive system and breast disorders,Y,N,MILD,POSSIBLY RELATED,RECOVERED,2
01-018,1,Site 01,18,M,Hispanic,Treatment B,2015-12-13,Y,3,2016-06-03,174,2016-06-11,182,Increased need to urinate,Urinary urgency,Renal and urinary disorders,N,Y,MODERATE,NOT RELATED,RESOLVED WITHOUT SEQUELAE,3
01-018,1,Site 01,18,M,Hispanic,Treatment B,2015-12-13,Y,4,2016-09-04,267,2016-12-06,360,Reduced sweating,Hypohidrosis,Skin and subcutaneous tissue disorders,N,Y,MILD,PROBABLY RELATED,RESOLVED WITHOUT SEQUELAE,4
01-018,1,Site 01,18,M,Hispanic,Treatment B,2015-12-13,Y,5,2016-10-29,322,2016-10-29,322,Hiccups,Hiccups,"Respiratory, thoracic and mediastina disorders",N,Y,MILD,NOT RELATED,RECOVERED,5
01-019,1,Site 01,43,M,Black,Treatment B,2015-06-26,Y,1,2015-10-27,124,2016-02-25,245,Problem characterized by signs that resemble Cushing's disease o syndrome due to too much steroids,Cushingoid,Endocrine disorders,N,N,MODERATE,NOT RELATED,"RESOLVED, RECOVERED",1
01-019,1,Site 01,43,M,Black,Treatment B,2015-06-26,Y,2,2015-12-08,166,2016-02-17,237,Decreased blood level of sodium,Hyponatremia,Metabolism and nutrition disorders,N,Y,MILD,PROBABLY RELATED,RESOLVED WITHOUT SEQUELAE,2
01-019,1,Site 01,43,M,Black,Treatment B,2015-06-26,Y,3,2016-02-08,228,2016-03-30,279,Problems related to ejaculation,Ejaculation disorder,Reproductive system and breast disorders,N,Y,MODERATE,NOT RELATED,"RESOLVED, RECOVERED",3
01-019,1,Site 01,43,M,Black,Treatment B,2015-06-26,Y,4,2016-04-14,294,2016-05-26,336,Pain on one side of the abdomen (belly) around the time o ovulation,Ovulation pain,Reproductive system and breast disorders,N,Y,MODERATE,DEFINITELY RELATED,RECOVERED,4
01-019,1,Site 01,43,M,Black,Treatment B,2015-06-26,Y,5,2016-06-16,357,2016-06-19,360,Abnormally low urine outpu,Urine output decreased,Investigations,N,Y,MILD,NOT RELATED,"RESOLVED, RECOVERED",5
01-020,1,Site 01,47,M,Other/Mixed,Treatment B,2015-04-25,Y,,,,,,,,,,,,,,
01-021,1,Site 01,23,F,Black,Treatment A,2015-10-04,Y,1,2016-06-24,265,2016-06-26,267,Bladder infection,Bladder infection,Infections and infestations,N,N,MODERATE,NOT RELATED,"RESOLVED, RECOVERED",1
01-022,1,Site 01,27,F,Black,Treatment A,2015-10-01,Y,1,2016-01-22,114,2016-08-24,329,Fast heartbeat usually originating in an area located above th ventricles,Supraventricular tachycardia,Cardiac disorders,N,Y,MILD,UNLIKELY RELATED,RECOVERED,1
01-022,1,Site 01,27,F,Black,Treatment A,2015-10-01,Y,2,2016-05-27,240,2016-06-29,273,Increased blood level of calcium,Hypercalcemia,Metabolism and nutrition disorders,Y,N,MODERATE,POSSIBLY RELATED,RECOVERED,2
01-022,1,Site 01,27,F,Black,Treatment A,2015-10-01,Y,3,2016-06-30,274,2016-09-26,362,Leakage from the vagina due to breakdown of a anastomosi (surgical connection between two body structures),Vaginal anastomotic leak,"Injury, poisoning and procedura complications",N,N,MILD,POSSIBLY RELATED,RESOLVED WITHOUT SEQUELAE,3
01-022,1,Site 01,27,F,Black,Treatment A,2015-10-01,Y,4,2016-08-11,316,2016-08-28,333,Joint infection,Joint infection,Infections and infestations,N,N,MILD,NOT RELATED,RESOLVED WITH SEQUELAE,4
01-023,1,Site 01,37,F,Other/Mixed,Treatment B,2015-10-01,Y,1,2016-06-23,267,2016-08-03,308,Destruction of red blood cells,Hemolysis,Blood and lymphatic system disorders,N,Y,SEVERE,UNLIKELY RELATED,RECOVERED,1
01-024,1,Site 01,48,M,Black,Treatment A,2015-03-30,Y,,,,,,,,,,,,,,
01-025,1,Site 01,21,M,White,Placebo,2015-06-22,Y,1,2015-06-28,7,2016-01-29,222,Eye pain,Eye pain,Eye disorders,N,N,MILD,NOT RELATED,"RESOLVED, RECOVERED",1
01-025,1,Site 01,21,M,White,Placebo,2015-06-22,Y,2,2016-01-20,213,2016-04-17,301,Stomach pain,Stomach pain,Gastrointestinal disorders,N,Y,MILD,POSSIBLY RELATED,RECOVERED,2
01-025,1,Site 01,21,M,White,Placebo,2015-06-22,Y,3,2016-02-01,225,2016-06-07,352,Increased blood level of sodium,Hypernatremia,Metabolism and nutrition disorders,N,Y,MILD,UNLIKELY RELATED,RECOVERED,3
01-025,1,Site 01,21,M,White,Placebo,2015-06-22,Y,4,2016-03-27,280,2016-04-22,306,Bleeding in the trachea (windpipe),Tracheal hemorrhage,"Injury, poisoning and procedura complications",N,Y,MILD,UNLIKELY RELATED,RECOVERED,4
01-026,1,Site 01,25,F,White,Treatment A,2015-02-19,Y,1,2015-04-19,60,2015-09-11,205,Narrowing of the stomach,Gastric stenosis,Gastrointestinal disorders,N,Y,MILD,NOT RELATED,RESOLVED WITHOUT SEQUELAE,1
01-026,1,Site 01,25,F,White,Treatment A,2015-02-19,Y,2,2015-08-22,185,2015-08-23,186,Constipation,Constipation,Gastrointestinal disorders,N,N,SEVERE,NOT RELATED,RECOVERED,2
01-026,1,Site 01,25,F,White,Treatment A,2015-02-19,Y,3,2015-12-13,298,2015-12-20,305,Narrowing of the windpipe,Tracheal stenosis,"Respiratory, thoracic and mediastina disorders",N,N,MODERATE,DEFINITELY RELATED,"RESOLVED, RECOVERED",3
01-026,1,Site 01,25,F,White,Treatment A,2015-02-19,Y,4,2016-02-13,360,2016-02-13,360,Fall,Fall,"Injury, poisoning and procedura complications",N,N,MILD,UNLIKELY RELATED,RECOVERED,4
01-027,1,Site 01,36,F,Hispanic,Treatment B,2015-03-08,Y,1,2015-04-26,50,2015-06-06,91,Destruction of a person's own healthy body tissue by their ow immune system,Autoimmune disorder,Immune system disorders,N,Y,MILD,DEFINITELY RELATED,RESOLVED WITHOUT SEQUELAE,1
01-027,1,Site 01,36,F,Hispanic,Treatment B,2015-03-08,Y,2,2015-05-22,76,2015-07-18,133,Hole between the stomach and another organ,Gastric fistula,Gastrointestinal disorders,N,Y,MODERATE,NOT RELATED,RESOLVED WITHOUT SEQUELAE,2
01-027,1,Site 01,36,F,Hispanic,Treatment B,2015-03-08,Y,3,2015-06-12,97,2015-08-17,163,Swelling in or around the eyelid,Periorbital edema,Skin and subcutaneous tissue disorders,N,N,MODERATE,UNLIKELY RELATED,RESOLVED WITH SEQUELAE,3
01-027,1,Site 01,36,F,Hispanic,Treatment B,2015-03-08,Y,4,2015-11-30,268,2015-12-26,294,Blockage in the bile ducts,Gallbladder obstruction,Hepatobiliary disorders,N,N,MILD,DEFINITELY RELATED,RESOLVED WITHOUT SEQUELAE,4
01-027,1,Site 01,36,F,Hispanic,Treatment B,2015-03-08,Y,5,2016-03-01,360,2016-03-03,362,Blockage of or in the voice box,Laryngeal obstruction,"Respiratory, thoracic and mediastina disorders",N,N,MILD,DEFINITELY RELATED,RESOLVED WITH SEQUELAE,5
01-028,1,Site 01,40,F,Other/Mixed,Treatment B,2015-06-01,Y,1,2015-06-30,30,2016-05-07,342,Destruction or death of tissue of the brain and/or spinal cor,Central nervous system necrosis,Nervous system disorders,N,Y,MILD,POSSIBLY RELATED,RECOVERED,1
01-028,1,Site 01,40,F,Other/Mixed,Treatment B,2015-06-01,Y,2,2015-09-06,98,2015-12-12,195,Blockage in an area of the small bowel (ileum,Ileal obstruction,Gastrointestinal disorders,N,N,SEVERE,PROBABLY RELATED,RESOLVED WITHOUT SEQUELAE,2
01-028,1,Site 01,40,F,Other/Mixed,Treatment B,2015-06-01,Y,3,2016-01-12,226,2016-05-29,364,Heartburn,Dyspepsia,Gastrointestinal disorders,N,N,MODERATE,UNLIKELY RELATED,RECOVERED,3
01-028,1,Site 01,40,F,Other/Mixed,Treatment B,2015-06-01,Y,4,2016-01-29,243,2016-05-07,342,Taste changes,Dysgeusia,Nervous system disorders,Y,Y,MODERATE,UNLIKELY RELATED,RECOVERED,4
01-028,1,Site 01,40,F,Other/Mixed,Treatment B,2015-06-01,Y,5,2016-05-01,336,2016-05-02,337,Decreased blood sugar level,Hypoglycemia,Metabolism and nutrition disorders,N,N,MILD,NOT RELATED,"RESOLVED, RECOVERED",5
01-029,1,Site 01,50,M,Black,Placebo,2015-06-11,Y,1,2016-01-15,219,2016-03-26,290,Secretion from the vagina,Vaginal discharge,Reproductive system and breast disorders,N,N,MILD,UNLIKELY RELATED,RECOVERED,1
01-030,1,Site 01,25,M,Other/Mixed,Treatment A,2015-01-18,N,,,,,,,,,,,,,,
02-001,2,Site 02,20,M,White,Treatment A,2015-12-11,N,,,,,,,,,,,,,,
02-002,2,Site 02,18,M,Hispanic,Treatment A,2015-09-21,Y,1,2015-11-22,63,2016-01-13,115,Liver pain,Hepatic pain,Hepatobiliary disorders,N,N,MILD,NOT RELATED,RESOLVED WITHOUT SEQUELAE,1
02-003,2,Site 02,27,F,Hispanic,Placebo,2015-04-27,Y,1,2015-05-18,22,2015-08-04,100,Sore (ulcer) in the lining of the small bowe,Small intestine ulcer,Gastrointestinal disorders,N,N,MODERATE,POSSIBLY RELATED,RECOVERED,1
02-003,2,Site 02,27,F,Hispanic,Placebo,2015-04-27,Y,2,2015-11-13,201,2016-04-21,361,Infection of the vulva (external female genitalia,Vulval infection,Infections and infestations,N,N,MODERATE,UNLIKELY RELATED,RESOLVED WITH SEQUELAE,2
02-003,2,Site 02,27,F,Hispanic,Placebo,2015-04-27,Y,3,2016-01-08,257,2016-02-25,305,Progressive necrosis (tissue death) of a part (the white matter) o the brain without inflammation (swelling and redness),Leukoencephalopathy,Nervous system disorders,N,Y,MODERATE,DEFINITELY RELATED,"RESOLVED, RECOVERED",3
02-003,2,Site 02,27,F,Hispanic,Placebo,2015-04-27,Y,4,2016-01-12,261,2016-02-26,306,Leak of cerebrospinal fluid (fluid that surrounds the brain and spin cord),Cerebrospinal fluid leakage,Nervous system disorders,N,N,MILD,POSSIBLY RELATED,RESOLVED WITHOUT SEQUELAE,4
02-003,2,Site 02,27,F,Hispanic,Placebo,2015-04-27,Y,5,2016-02-27,307,2016-02-29,309,Slow heartbeat; regular rhythm,Sinus bradycardia,Cardiac disorders,N,N,SEVERE,NOT RELATED,RECOVERED,5
02-004,2,Site 02,21,F,White,Placebo,2015-09-30,Y,1,2016-02-20,144,2016-07-31,306,Unexpected pregnancy,Unintended pregnancy,"Pregnancy, puerperium and perinata conditions",N,Y,SEVERE,NOT RELATED,RECOVERED,1
02-004,2,Site 02,21,F,White,Placebo,2015-09-30,Y,2,2016-03-04,157,2016-07-07,282,High level of hormone of the parathyroid glands causing high bloo calcium levels (hypercalemia) and low blood phosphate (hypophosphaemia),Hyperparathyroidism,Endocrine disorders,N,N,SEVERE,DEFINITELY RELATED,RECOVERED,2
02-004,2,Site 02,21,F,White,Placebo,2015-09-30,Y,3,2016-06-22,267,2016-07-20,295,Inflammation (swelling and redness) of the voice box (larynx) that i usually associated with hoarseness or loss of voice,Laryngitis,Infections and infestations,N,N,MILD,PROBABLY RELATED,RECOVERED,3
02-004,2,Site 02,21,F,White,Placebo,2015-09-30,Y,4,2016-06-22,267,2016-09-20,357,Abnormal control of blood sugar leve,Glucose intolerance,Metabolism and nutrition disorders,N,Y,MODERATE,PROBABLY RELATED,"RESOLVED, RECOVERED",4
02-005,2,Site 02,36,M,Other/Mixed,Treatment B,2015-05-14,Y,1,2016-02-24,287,2016-04-08,331,Inflammation (swelling and redness) of the spinal cor,Myelitis,Nervous system disorders,N,N,MILD,DEFINITELY RELATED,RECOVERED,1
02-006,2,Site 02,36,M,White,Placebo,2015-06-04,Y,1,2015-06-27,24,2016-05-17,349,Hardening of an area of skin,Skin induration,Skin and subcutaneous tissue disorders,N,Y,MILD,NOT RELATED,RESOLVED WITHOUT SEQUELAE,1
02-006,2,Site 02,36,M,White,Placebo,2015-06-04,Y,2,2015-12-11,191,2016-01-05,216,Infection of the anal or rectal area,Anorectal infection,Infections and infestations,N,Y,MILD,UNLIKELY RELATED,"RESOLVED, RECOVERED",2
02-007,2,Site 02,54,M,White,Treatment A,2015-11-18,Y,,,,,,,,,,,,,,
02-008,2,Site 02,31,M,Hispanic,Treatment B,2015-09-01,N,,,,,,,,,,,,,,
02-009,2,Site 02,21,F,Other/Mixed,Treatment B,2015-08-17,Y,1,2015-12-20,126,2016-04-26,254,Shrinking of body fat,Fat atrophy,Skin and subcutaneous tissue disorders,N,N,MILD,UNLIKELY RELATED,RECOVERED,1
02-009,2,Site 02,21,F,Other/Mixed,Treatment B,2015-08-17,Y,2,2016-01-07,144,2016-07-04,323,"More protein leaking into the urine than usual, often a sign of kidne disease",Proteinuria,Renal and urinary disorders,N,Y,MILD,NOT RELATED,RECOVERED,2
02-009,2,Site 02,21,F,Other/Mixed,Treatment B,2015-08-17,Y,3,2016-01-14,151,2016-05-04,262,Birth before the 9th month of pregnancy (the normal length o pregnancy),Premature delivery,"Pregnancy, puerperium and perinata conditions",Y,Y,MODERATE,NOT RELATED,RESOLVED WITHOUT SEQUELAE,3
02-009,2,Site 02,21,F,Other/Mixed,Treatment B,2015-08-17,Y,4,2016-03-21,218,2016-05-26,284,Stoppage of breathing for short periods while sleeping,Sleep apnea,"Respiratory, thoracic and mediastina disorders",N,N,MODERATE,NOT RELATED,RECOVERED,4
02-010,2,Site 02,38,F,Hispanic,Treatment B,2015-01-12,Y,1,2015-01-22,11,2015-08-15,216,Nerve pain,Neuralgia,Nervous system disorders,Y,N,MODERATE,POSSIBLY RELATED,RECOVERED,1
02-010,2,Site 02,38,F,Hispanic,Treatment B,2015-01-12,Y,2,2015-02-08,28,2015-06-04,144,Leg and/or arm pain,Pain in extremity,Musculoskeletal and connective tissu disorders,N,Y,MILD,UNLIKELY RELATED,RESOLVED WITHOUT SEQUELAE,2
02-010,2,Site 02,38,F,Hispanic,Treatment B,2015-01-12,Y,3,2015-03-07,55,2015-04-28,107,Hole in the stomach,Gastric perforation,Gastrointestinal disorders,N,Y,SEVERE,POSSIBLY RELATED,RESOLVED WITHOUT SEQUELAE,3
02-010,2,Site 02,38,F,Hispanic,Treatment B,2015-01-12,Y,4,2015-06-13,153,2015-09-22,254,Exaggerated feeling of well being,Euphoria,Psychiatric disorders,N,N,MILD,PROBABLY RELATED,RECOVERED,4
02-010,2,Site 02,38,F,Hispanic,Treatment B,2015-01-12,Y,5,2015-10-07,269,2015-10-23,285,Death of tissue of the belly wall,Abdominal soft tissue necrosis,Musculoskeletal and connective tissu disorders,N,N,MILD,DEFINITELY RELATED,RESOLVED WITHOUT SEQUELAE,5
02-011,2,Site 02,36,F,White,Treatment B,2015-07-27,N,,,,,,,,,,,,,,
02-012,2,Site 02,40,F,Other/Mixed,Treatment A,2015-10-09,Y,1,2016-07-05,271,2016-07-26,292,"Reaction that can occur during or following infusion of the drug The reaction may include fever, chills, rash, low blood pressure, and difficulty breathing.",Infusion related reaction,General disorders and administration site conditions,N,N,MILD,NOT RELATED,"RESOLVED, RECOVERED",1
02-012,2,Site 02,40,F,Other/Mixed,Treatment A,2015-10-09,Y,2,2016-08-05,302,2016-08-25,322,Painful sexual intercourse,Dyspareunia,Reproductive system and breast disorders,N,N,MODERATE,NOT RELATED,RESOLVED WITHOUT SEQUELAE,2
02-012,2,Site 02,40,F,Other/Mixed,Treatment A,2015-10-09,Y,3,2016-09-16,344,2016-09-19,347,Muscle weakness of the left side of the body,Muscle weakness left-sided,Musculoskeletal and connective tissu disorders,N,N,MODERATE,NOT RELATED,RECOVERED,3
02-013,2,Site 02,46,M,Black,Treatment B,2015-03-09,Y,1,2015-03-12,4,2015-10-15,221,Earache or ear pain,Ear pain,Ear and labyrinth disorders,N,N,MILD,NOT RELATED,"RESOLVED, RECOVERED",1
02-013,2,Site 02,46,M,Black,Treatment B,2015-03-09,Y,2,2015-07-26,140,2015-12-13,280,"Excess amount of gastric juice flowing back (refluxes) into th esophagus (gullet or the tube that goes from mouth to stomach through which food passes), causing heartburn and possibly damaging the esophagus",Gastroesophageal reflux disease,Gastrointestinal disorders,N,Y,MILD,UNLIKELY RELATED,RECOVERED,2
02-013,2,Site 02,46,M,Black,Treatment B,2015-03-09,Y,3,2015-08-19,164,2016-01-28,326,Decrease of a blood protein called haptoglobin which shows tha red blood cells are being destroyed,Haptoglobin decreased,Investigations,N,N,MODERATE,UNLIKELY RELATED,RECOVERED,3
02-013,2,Site 02,46,M,Black,Treatment B,2015-03-09,Y,4,2015-12-05,272,2016-03-03,361,Gradual (and usually permanent) loss of kidney functio,Chronic kidney disease,Renal and urinary disorders,N,N,SEVERE,UNLIKELY RELATED,"RESOLVED, RECOVERED",4
02-014,2,Site 02,19,F,Other/Mixed,Treatment A,2015-04-13,Y,1,2015-10-13,184,2016-03-31,354,Increased blood level of a liver pigment (bilirubin) often a sign o liver problems,Blood bilirubin increased,Investigations,N,Y,MODERATE,PROBABLY RELATED,RECOVERED,1
02-014,2,Site 02,19,F,Other/Mixed,Treatment A,2015-04-13,Y,2,2015-11-16,218,2015-11-24,226,Inflammation (swelling and redness) of the blood vessel,Vasculitis,Vascular disorders,N,N,MILD,UNLIKELY RELATED,RECOVERED,2
02-015,2,Site 02,40,M,Hispanic,Treatment A,2015-04-28,Y,1,2015-05-05,8,2015-09-02,128,Bleeding in the esophagus (gullet or the tube that goes from th mouth to the stomach),Esophageal hemorrhage,Gastrointestinal disorders,N,Y,MILD,NOT RELATED,"RESOLVED, RECOVERED",1
02-015,2,Site 02,40,M,Hispanic,Treatment A,2015-04-28,Y,2,2015-10-30,186,2015-12-29,246,Decreased ability to concentrate,Concentration impairmen,Nervous system disorders,N,N,MILD,UNLIKELY RELATED,"RESOLVED, RECOVERED",2
02-015,2,Site 02,40,M,Hispanic,Treatment A,2015-04-28,Y,3,2015-12-22,239,2016-03-15,323,Weakness of facial muscles,Facial muscle weakness,Nervous system disorders,N,N,MILD,POSSIBLY RELATED,RESOLVED WITHOUT SEQUELAE,3
02-015,2,Site 02,40,M,Hispanic,Treatment A,2015-04-28,Y,4,2016-02-01,280,2016-02-26,305,Fainting,Syncope,Nervous system disorders,N,Y,MILD,PROBABLY RELATED,RECOVERED,4
02-015,2,Site 02,40,M,Hispanic,Treatment A,2015-04-28,Y,5,2016-03-21,329,2016-04-10,349,Hole between the urinary bladder and some part of the intestines,Enterovesical fistula,Gastrointestinal disorders,N,N,MILD,UNLIKELY RELATED,RESOLVED WITHOUT SEQUELAE,5
02-016,2,Site 02,29,M,White,Placebo,2015-02-24,Y,1,2015-03-13,18,2015-06-08,105,Swelling around the nerve responsible for sigh,Papilledema,Eye disorders,N,N,MILD,UNLIKELY RELATED,RESOLVED WITHOUT SEQUELAE,1
02-016,2,Site 02,29,M,White,Placebo,2015-02-24,Y,2,2015-05-26,92,2015-07-24,151,Decreased blood level of magnesium,Hypomagnesemia,Metabolism and nutrition disorders,N,N,SEVERE,PROBABLY RELATED,RECOVERED,2
02-016,2,Site 02,29,M,White,Placebo,2015-02-24,Y,3,2015-11-11,261,2015-11-28,278,Change in color of the urine,Urine discoloration,Renal and urinary disorders,N,N,MILD,POSSIBLY RELATED,"RESOLVED, RECOVERED",3
02-016,2,Site 02,29,M,White,Placebo,2015-02-24,Y,4,2015-11-29,279,2016-01-11,322,Headache or head pain,Headache,Nervous system disorders,N,N,MILD,NOT RELATED,RESOLVED WITHOUT SEQUELAE,4
02-017,2,Site 02,33,M,White,Placebo,2015-04-06,Y,1,2015-05-26,51,2015-09-30,178,Infection of the soft tissues around the eye socke,Periorbital infection,Infections and infestations,N,Y,MODERATE,UNLIKELY RELATED,"RESOLVED, RECOVERED",1
02-017,2,Site 02,33,M,White,Placebo,2015-04-06,Y,2,2015-06-09,65,2016-03-31,361,Irritation or sores in the lining of the windpipe,Tracheal mucositis,"Respiratory, thoracic and mediastina disorders",N,N,MILD,NOT RELATED,RECOVERED,2
02-017,2,Site 02,33,M,White,Placebo,2015-04-06,Y,3,2015-10-04,182,2016-01-21,291,Swelling of tissues due to excessive collection of lymph (the clea fluid that is collected from tissues throughout the body) due to a blockage in the lymphatic vessels,Lymphedema,Vascular disorders,N,N,MODERATE,UNLIKELY RELATED,RECOVERED,3
02-017,2,Site 02,33,M,White,Placebo,2015-04-06,Y,4,2016-02-19,320,2016-03-22,352,Difficulty swallowing,Dysphagia,Gastrointestinal disorders,N,N,MILD,POSSIBLY RELATED,"RESOLVED, RECOVERED",4
02-017,2,Site 02,33,M,White,Placebo,2015-04-06,Y,5,2016-03-02,332,2016-03-02,332,Painful sexual intercourse,Dyspareunia,Reproductive system and breast disorders,Y,Y,MILD,PROBABLY RELATED,RECOVERED,5
02-018,2,Site 02,19,F,White,Placebo,2015-11-23,Y,,,,,,,,,,,,,,
02-019,2,Site 02,49,F,Black,Placebo,2015-02-17,Y,1,2015-03-28,40,2015-08-18,183,Leakage from the small bowel due to breakdown of a anastomosis (surgical connection between two body structures),Small intestinal anastomotic leak,"Injury, poisoning and procedural complications",N,Y,MODERATE,UNLIKELY RELATED,RECOVERED,1
02-019,2,Site 02,49,F,Black,Placebo,2015-02-17,Y,2,2015-05-05,78,2015-08-12,177,Muscle weakness of arms,Muscle weakness upper limb,Musculoskeletal and connective tissu disorders,N,N,MODERATE,UNLIKELY RELATED,RECOVERED,2
02-019,2,Site 02,49,F,Black,Placebo,2015-02-17,Y,3,2016-01-23,341,2016-02-15,364,"More protein leaking into the urine than usual, often a sign of kidne disease",Proteinuria,Renal and urinary disorders,N,N,SEVERE,UNLIKELY RELATED,RESOLVED WITH SEQUELAE,3
02-020,2,Site 02,48,F,Black,Treatment A,2015-04-12,Y,1,2015-05-02,21,2015-06-15,65,Infection of the spleen,Splenic infection,Infections and infestations,N,N,SEVERE,UNLIKELY RELATED,"RESOLVED, RECOVERED",1
02-020,2,Site 02,48,F,Black,Treatment A,2015-04-12,Y,2,2015-07-19,99,2015-08-16,127,Hole between uterus (womb) and another organ,Uterine fistula,Reproductive system and breast disorders,N,N,MODERATE,NOT RELATED,RESOLVED WITHOUT SEQUELAE,2
02-020,2,Site 02,48,F,Black,Treatment A,2015-04-12,Y,3,2016-02-03,298,2016-03-21,345,"Abnormally increased outward curving of the spine at the level o the ribs that causes a bowing of the back, which leads to a hunchback or slouching posture",Kyphosis,Musculoskeletal and connective tissue disorders,N,N,MODERATE,UNLIKELY RELATED,RECOVERED,3
02-020,2,Site 02,48,F,Black,Treatment A,2015-04-12,Y,4,2016-02-12,307,2016-03-13,337,Increased INR (measure of the ability of the blood to clot properly which increases the risk of bleeding,INR increased,Investigations,Y,Y,MILD,UNLIKELY RELATED,"RESOLVED, RECOVERED",4
02-020,2,Site 02,48,F,Black,Treatment A,2015-04-12,Y,5,2016-04-01,356,2016-04-08,363,Death of tissue of the anus,Anal necrosis,Gastrointestinal disorders,N,Y,MILD,NOT RELATED,RECOVERED,5
02-021,2,Site 02,23,F,White,Treatment A,2015-07-14,Y,1,2016-02-22,224,2016-03-01,232,Hoarseness,Hoarseness,"Respiratory, thoracic and mediastina disorders",N,Y,MILD,UNLIKELY RELATED,RESOLVED WITH SEQUELAE,1
02-021,2,Site 02,23,F,White,Treatment A,2015-07-14,Y,2,2016-03-17,248,2016-06-16,339,Small tearing of the retina (a multi-layered sensory tissue that line the back of the eye responsible for sight),Retinal tear,Eye disorders,N,N,SEVERE,UNLIKELY RELATED,"RESOLVED, RECOVERED",2
02-022,2,Site 02,53,F,Black,Treatment B,2015-10-02,Y,1,2015-12-10,70,2016-03-14,165,Voice change,Voice alteration,"Respiratory, thoracic and mediastina disorders",Y,N,MILD,POSSIBLY RELATED,"RESOLVED, RECOVERED",1
02-022,2,Site 02,53,F,Black,Treatment B,2015-10-02,Y,2,2016-04-25,207,2016-08-06,310,Leakage from the kidneys due to breakdown of a anastomosi (surgical connection between two body structures),Kidney anastomotic leak,"Injury, poisoning and procedura complications",Y,N,MODERATE,NOT RELATED,RECOVERED,2
02-023,2,Site 02,20,M,Other/Mixed,Treatment B,2015-06-06,Y,1,2015-10-08,125,2016-05-18,348,Hardening of an area of skin,Skin induration,Skin and subcutaneous tissue disorders,N,Y,MILD,NOT RELATED,RECOVERED,1
02-024,2,Site 02,45,M,White,Treatment A,2015-03-01,Y,1,2015-05-15,76,2015-11-02,247,Weakness of facial muscles,Facial muscle weakness,Nervous system disorders,N,N,MILD,DEFINITELY RELATED,RESOLVED WITHOUT SEQUELAE,1
02-024,2,Site 02,45,M,White,Treatment A,2015-03-01,Y,2,2015-07-19,141,2016-01-27,333,"Redness, flaking or shedding of skin in the radiation treatment area",Dermatitis radiation,"Injury, poisoning and procedura complications",N,Y,MILD,DEFINITELY RELATED,"RESOLVED, RECOVERED",2
02-024,2,Site 02,45,M,White,Treatment A,2015-03-01,Y,3,2015-07-29,151,2015-12-23,298,Secretion from the vagina,Vaginal discharge,Reproductive system and breast disorders,N,N,MODERATE,NOT RELATED,RESOLVED WITH SEQUELAE,3
02-024,2,Site 02,45,M,White,Treatment A,2015-03-01,Y,4,2015-08-04,157,2016-01-04,310,Hole in the uterus (womb),Uterine perforation,"Injury, poisoning and procedura complications",N,Y,MILD,NOT RELATED,RECOVERED,4
02-024,2,Site 02,45,M,White,Treatment A,2015-03-01,Y,5,2015-08-05,158,2016-01-20,326,Infection of soft body tissue,Soft tissue infection,Infections and infestations,Y,N,MODERATE,UNLIKELY RELATED,RECOVERED,5
02-025,2,Site 02,42,M,Black,Treatment B,2015-09-27,Y,1,2015-11-04,39,2016-07-11,289,Irritation or sores in the lining of the voice box,Laryngeal mucositis,"Respiratory, thoracic and mediastina disorders",N,Y,MODERATE,UNLIKELY RELATED,RECOVERED,1
02-025,2,Site 02,42,M,Black,Treatment B,2015-09-27,Y,2,2016-04-26,213,2016-08-05,314,"Decrease in heart's ability to pump blood during the ""active"" phas of the heartbeat (systole)",Left ventricular systolic dysfunction,Cardiac disorders,N,N,MODERATE,NOT RELATED,RESOLVED WITHOUT SEQUELAE,2
02-025,2,Site 02,42,M,Black,Treatment B,2015-09-27,Y,3,2016-06-05,253,2016-07-29,307,Presence of free hemoglobin (the blood protein that carries oxygen in the urine,Hemoglobinuria,Renal and urinary disorders,N,Y,MILD,NOT RELATED,RESOLVED WITHOUT SEQUELAE,3
02-026,2,Site 02,36,F,Black,Treatment A,2015-07-12,Y,1,2016-03-09,242,2016-03-16,249,Blurred vision,Blurred vision,Eye disorders,Y,Y,MILD,POSSIBLY RELATED,RECOVERED,1
02-027,2,Site 02,27,F,Black,Placebo,2015-04-03,Y,1,2015-06-18,77,2015-12-20,262,Swelling of tissues due to excessive collection of lymph (the clea fluid that is collected from tissues throughout the body) due to a blockage in the lymphatic vessels,Lymphedema,Vascular disorders,N,Y,MILD,NOT RELATED,RECOVERED,1
02-027,2,Site 02,27,F,Black,Placebo,2015-04-03,Y,2,2015-10-27,208,2015-11-22,234,Weight gain,Weight gain,Investigations,N,N,MODERATE,POSSIBLY RELATED,"RESOLVED, RECOVERED",2
02-027,2,Site 02,27,F,Black,Placebo,2015-04-03,Y,3,2015-11-25,237,2016-01-14,287,"Inflammation (swelling and redness) of the conjunctiva (th outermost layer of the eye and the inner surface of the eyelids). Commonly called ""pink eye"".",Conjunctivitis,Eye disorders,N,N,MILD,UNLIKELY RELATED,"RESOLVED, RECOVERED",3
02-028,2,Site 02,29,M,Hispanic,Placebo,2015-04-25,Y,1,2015-04-26,2,2015-07-10,77,Hole in the bladder,Bladder perforation,Renal and urinary disorders,Y,Y,MODERATE,POSSIBLY RELATED,"RESOLVED, RECOVERED",1
02-028,2,Site 02,29,M,Hispanic,Placebo,2015-04-25,Y,2,2015-11-16,206,2016-03-22,333,Pain of the urinary trac,Urinary tract pain,Renal and urinary disorders,N,Y,SEVERE,NOT RELATED,RESOLVED WITH SEQUELAE,2
02-029,2,Site 02,39,M,Hispanic,Treatment A,2015-10-22,Y,1,2015-11-13,23,2016-01-14,85,Partial or complete blockage of the small and/or large bowel.  Ileu is a functional rather than actual blockage of the bowel.,Ileus,Gastrointestinal disorders,N,N,MODERATE,UNLIKELY RELATED,"RESOLVED, RECOVERED",1
02-029,2,Site 02,39,M,Hispanic,Treatment A,2015-10-22,Y,2,2016-02-04,106,2016-07-01,254,Inflammation (swelling and redness) to the middle ea,Middle ear inflammation,Ear and labyrinth disorders,N,N,MILD,UNLIKELY RELATED,RECOVERED,2
02-029,2,Site 02,39,M,Hispanic,Treatment A,2015-10-22,Y,3,2016-07-30,283,2016-10-02,347,Unusually early onset of sexual maturation (puberty,Precocious puberty,Endocrine disorders,N,N,SEVERE,UNLIKELY RELATED,RECOVERED,3
02-030,2,Site 02,47,M,Black,Placebo,2015-04-27,N,,,,,,,,,,,,,,
03-001,3,Site 03,18,F,White,Treatment B,2015-12-14,Y,1,2015-12-21,8,2016-09-23,285,Inflammation (swelling and redness) of the esophagus (gullet or the tube that goes from mouth to stomach through which food passes),Esophagitis,Gastrointestinal disorders,N,N,MODERATE,NOT RELATED,"RESOLVED, RECOVERED",1
03-001,3,Site 03,18,F,White,Treatment B,2015-12-14,Y,2,2016-03-14,92,2016-06-26,196,Increased blood level of magnesium,Hypermagnesemia,Metabolism and nutrition disorders,N,N,MILD,UNLIKELY RELATED,"RESOLVED, RECOVERED",2
03-001,3,Site 03,18,F,White,Treatment B,2015-12-14,Y,3,2016-04-24,133,2016-06-30,200,Hot flashes,Hot flashes,Vascular disorders,N,N,MILD,UNLIKELY RELATED,RECOVERED,3
03-001,3,Site 03,18,F,White,Treatment B,2015-12-14,Y,4,2016-08-13,244,2016-10-03,295,High blood pressure of the blood vessels in the lungs,Pulmonary hypertension,"Respiratory, thoracic and mediastina disorders",N,N,MILD,NOT RELATED,RESOLVED WITHOUT SEQUELAE,4
03-001,3,Site 03,18,F,White,Treatment B,2015-12-14,Y,5,2016-10-08,300,2016-10-19,311,Weight loss,Weight loss,Investigations,N,Y,MILD,POSSIBLY RELATED,"RESOLVED, RECOVERED",5
03-002,3,Site 03,43,F,Hispanic,Treatment A,2015-04-25,Y,1,2016-04-11,353,2016-04-12,354,Back pain,Back pain,Musculoskeletal and connective tissu disorders,N,Y,SEVERE,POSSIBLY RELATED,"RESOLVED, RECOVERED",1
03-003,3,Site 03,27,F,White,Treatment A,2015-09-02,Y,1,2015-11-27,87,2016-01-22,143,Damage to a vein (a blood vessel that carries blood low in oxyge content from the body back to the heart),Venous injury,"Injury, poisoning and procedura complications",Y,N,MILD,PROBABLY RELATED,"RESOLVED, RECOVERED",1
03-003,3,Site 03,27,F,White,Treatment A,2015-09-02,Y,2,2015-12-27,117,2016-01-08,129,Abnomal level of antidiuretic hormone (a hormone that regulates t body's retention of water),Blood antidiuretic hormone abnormal,Investigations,N,Y,MILD,UNLIKELY RELATED,RECOVERED,2
03-003,3,Site 03,27,F,White,Treatment A,2015-09-02,Y,3,2016-01-29,150,2016-03-25,206,Narrowing of the rectum,Rectal stenosis,Gastrointestinal disorders,N,N,MILD,POSSIBLY RELATED,RESOLVED WITHOUT SEQUELAE,3
03-004,3,Site 03,42,M,Black,Treatment B,2015-05-27,Y,1,2015-10-21,148,2016-04-29,339,Infection in the throat,Pharyngitis,Infections and infestations,N,Y,MILD,NOT RELATED,RECOVERED,1
03-005,3,Site 03,19,F,Hispanic,Placebo,2015-12-03,Y,1,2016-07-24,235,2016-07-26,237,Uncontrolled bleeding during surgery,Intraoperative hemorrhage,"Injury, poisoning and procedura complications",N,N,MODERATE,DEFINITELY RELATED,RECOVERED,1
03-006,3,Site 03,18,M,Hispanic,Treatment B,2015-03-30,Y,1,2015-03-31,2,2015-11-14,230,Hole between uterus (womb) and another organ,Uterine fistula,Reproductive system and breast disorders,N,N,MODERATE,UNLIKELY RELATED,RESOLVED WITHOUT SEQUELAE,1
03-007,3,Site 03,42,F,White,Treatment B,2015-03-17,Y,1,2015-05-28,73,2015-07-03,109,Blockage or narrowing of a visceral artery (a blood vessel tha carries blood from the heart) located in an internal organ,Visceral arterial ischemia,Vascular disorders,Y,N,MILD,UNLIKELY RELATED,"RESOLVED, RECOVERED",1
03-007,3,Site 03,42,F,White,Treatment B,2015-03-17,Y,2,2015-12-12,271,2016-03-14,364,Abnormal blood clotting and/or bleeding,Disseminated intravascular coagulation,Blood and lymphatic system disorders,N,N,MILD,UNLIKELY RELATED,"RESOLVED, RECOVERED",2
03-008,3,Site 03,49,F,Other/Mixed,Treatment A,2015-08-19,Y,1,2015-10-03,46,2015-10-24,67,"Progressive failure of the lungs, liver, kidney, and clottin mechanisms",Multi-organ failure,General disorders and administration sit conditions,N,Y,MODERATE,UNLIKELY RELATED,"RESOLVED, RECOVERED",1
03-008,3,Site 03,49,F,Other/Mixed,Treatment A,2015-08-19,Y,2,2015-10-06,49,2015-11-15,89,Irregular heartbeat.  A complete blockage of electrical signals fro the upper chambers of the heart (atria) to the lower chambers. (ventricle),Atrioventricular block complete,Cardiac disorders,N,Y,MODERATE,NOT RELATED,RESOLVED WITHOUT SEQUELAE,2
03-008,3,Site 03,49,F,Other/Mixed,Treatment A,2015-08-19,Y,3,2015-11-02,76,2016-07-24,341,Abnormally low level of thyroid gland hormon,Hypothyroidism,Endocrine disorders,N,N,MODERATE,NOT RELATED,"RESOLVED, RECOVERED",3
03-008,3,Site 03,49,F,Other/Mixed,Treatment A,2015-08-19,Y,4,2016-03-22,217,2016-05-19,275,Broken hip,Hip fracture,"Injury, poisoning and procedura complications",N,N,MODERATE,UNLIKELY RELATED,RESOLVED WITHOUT SEQUELAE,4
03-008,3,Site 03,49,F,Other/Mixed,Treatment A,2015-08-19,Y,5,2016-04-30,256,2016-07-11,328,Shrinking of body fat,Fat atrophy,Skin and subcutaneous tissue disorders,N,N,MODERATE,PROBABLY RELATED,RESOLVED WITHOUT SEQUELAE,5
03-009,3,Site 03,27,M,Hispanic,Treatment B,2015-06-17,N,,,,,,,,,,,,,,
03-010,3,Site 03,28,F,White,Placebo,2015-11-15,Y,1,2016-02-02,80,2016-03-18,125,Need to urinate often,Urinary frequency,Renal and urinary disorders,N,Y,MILD,PROBABLY RELATED,"RESOLVED, RECOVERED",1
03-010,3,Site 03,28,F,White,Placebo,2015-11-15,Y,2,2016-04-08,146,2016-05-10,178,Pain in the penis,Penile pain,Reproductive system and breast disorders,N,N,SEVERE,POSSIBLY RELATED,"RESOLVED, RECOVERED",2
03-010,3,Site 03,28,F,White,Placebo,2015-11-15,Y,3,2016-06-07,206,2016-10-31,352,Abnormal blood clotting and/or bleeding,Disseminated intravascular coagulation,Blood and lymphatic system disorders,N,Y,MODERATE,UNLIKELY RELATED,"RESOLVED, RECOVERED",3
03-010,3,Site 03,28,F,White,Placebo,2015-11-15,Y,4,2016-08-23,283,2016-09-19,310,Infection of the uterus (womb),Uterine infection,Infections and infestations,N,Y,MODERATE,NOT RELATED,"RESOLVED, RECOVERED",4
03-011,3,Site 03,49,M,Other/Mixed,Treatment A,2015-02-05,Y,1,2015-02-26,22,2015-10-27,265,Inflammation (swelling and redness) in a joint (arthritis),Arthritis,Musculoskeletal and connective tissu disorders,N,Y,MILD,POSSIBLY RELATED,RESOLVED WITH SEQUELAE,1
03-011,3,Site 03,49,M,Other/Mixed,Treatment A,2015-02-05,Y,2,2015-07-28,174,2015-08-23,200,Blockage of an ostomy site (a surgically created opening in th digestive tract for the discharge of body wastes),Intestinal stoma obstruction,"Injury, poisoning and procedura complications",N,Y,MILD,POSSIBLY RELATED,RECOVERED,2
03-011,3,Site 03,49,M,Other/Mixed,Treatment A,2015-02-05,Y,3,2015-11-19,288,2016-01-03,333,Abnormal amount of air that is exhaled by following a maxima inhalation,Vital capacity abnormal,Investigations,N,N,MODERATE,UNLIKELY RELATED,RESOLVED WITHOUT SEQUELAE,3
03-011,3,Site 03,49,M,Other/Mixed,Treatment A,2015-02-05,Y,4,2016-01-20,350,2016-01-28,358,Pain in the penis,Penile pain,Reproductive system and breast disorders,N,Y,SEVERE,UNLIKELY RELATED,RESOLVED WITHOUT SEQUELAE,4
03-012,3,Site 03,32,M,Black,Placebo,2015-08-19,Y,1,2015-10-23,66,2015-11-27,101,Decrease in the total number of white blood cells (leukocytes,White blood cell decreased,Investigations,N,Y,SEVERE,NOT RELATED,"RESOLVED, RECOVERED",1
03-012,3,Site 03,32,M,Black,Placebo,2015-08-19,Y,2,2015-12-29,133,2016-03-19,214,Unusually early onset of sexual maturation (puberty,Precocious puberty,Endocrine disorders,N,N,SEVERE,PROBABLY RELATED,RECOVERED,2
03-012,3,Site 03,32,M,Black,Placebo,2015-08-19,Y,3,2016-07-12,329,2016-07-30,347,Chills,Chills,General disorders and administration sit conditions,N,N,MODERATE,UNLIKELY RELATED,RECOVERED,3
03-013,3,Site 03,33,M,Other/Mixed,Placebo,2015-10-28,Y,1,2015-11-06,10,2016-06-03,220,Gradual (and usually permanent) loss of kidney functio,Chronic kidney disease,Renal and urinary disorders,N,Y,MILD,PROBABLY RELATED,RECOVERED,1
03-013,3,Site 03,33,M,Other/Mixed,Placebo,2015-10-28,Y,2,2015-12-11,45,2016-08-24,302,Rapid heart rate caused by extra electrical pathway in the hear,Wolff-Parkinson-White syndrome,Cardiac disorders,N,N,SEVERE,UNLIKELY RELATED,RECOVERED,2
03-013,3,Site 03,33,M,Other/Mixed,Placebo,2015-10-28,Y,3,2016-03-03,128,2016-05-08,194,Increased blood level of enzyme (creatine phosphokinase) fro muscle,CPK increased,Investigations,N,Y,MILD,PROBABLY RELATED,RECOVERED,3
03-013,3,Site 03,33,M,Other/Mixed,Placebo,2015-10-28,Y,4,2016-05-14,200,2016-06-02,219,Leakage from the pharynx (throat) due to breakdown of a anastomosis (surgical connection between two body structures),Pharyngeal anastomotic leak,"Injury, poisoning and procedural complications",N,Y,MILD,UNLIKELY RELATED,RECOVERED,4
03-013,3,Site 03,33,M,Other/Mixed,Placebo,2015-10-28,Y,5,2016-10-26,365,2016-10-26,365,Weakness in the “pelvic floor”  (the group of muscles that form  sling or hammock across the opening of a woman’s pelvis),Pelvic floor muscle weakness,Reproductive system and breast disorders,N,N,MILD,NOT RELATED,RECOVERED,5
03-014,3,Site 03,53,F,Black,Placebo,2015-02-07,Y,1,2015-03-05,27,2015-12-09,306,Infection of the ovaries,Ovarian infection,Infections and infestations,N,N,MODERATE,NOT RELATED,RECOVERED,1
03-014,3,Site 03,53,F,Black,Placebo,2015-02-07,Y,2,2015-04-01,54,2015-04-06,59,Hole in the small bowe,Small intestinal perforation,Gastrointestinal disorders,N,N,MILD,PROBABLY RELATED,RESOLVED WITHOUT SEQUELAE,2
03-014,3,Site 03,53,F,Black,Placebo,2015-02-07,Y,3,2015-05-12,95,2016-01-13,341,Infection of the urethra (tube that drains the bladder,Urethral infection,Infections and infestations,N,N,MODERATE,NOT RELATED,RESOLVED WITH SEQUELAE,3
03-014,3,Site 03,53,F,Black,Placebo,2015-02-07,Y,4,2015-07-30,174,2015-08-03,178,Hole in the esophagus (gullet or the tube that goes from mouth t stomach through which food passes),Esophageal perforation,Gastrointestinal disorders,N,Y,MILD,UNLIKELY RELATED,"RESOLVED, RECOVERED",4
03-014,3,Site 03,53,F,Black,Placebo,2015-02-07,Y,5,2015-10-04,240,2015-10-07,243,Leakage from ostomy site (a surgically created opening in th digestive tract for the discharge of body wastes),Intestinal stoma leak,"Injury, poisoning and procedura complications",N,Y,MILD,UNLIKELY RELATED,RESOLVED WITHOUT SEQUELAE,5
03-015,3,Site 03,33,M,Black,Treatment B,2015-06-27,Y,1,2015-06-30,4,2015-07-09,13,Blockage from a urostoma (a surgically created opening for th discharge of urine),Urostomy obstruction,"Injury, poisoning and procedura complications",Y,N,MILD,PROBABLY RELATED,RECOVERED,1
03-015,3,Site 03,33,M,Black,Treatment B,2015-06-27,Y,2,2015-11-16,143,2016-05-13,322,Leakage from the esophagus (gullet or the tube that goes fro mouth to stomach  through which food passes) breakdown of an esophageal anastomosis (surgical connection of two separate body structures),Esophageal anastomotic leak,"Injury, poisoning and procedural complications",N,Y,MODERATE,UNLIKELY RELATED,"RESOLVED, RECOVERED",2
03-015,3,Site 03,33,M,Black,Treatment B,2015-06-27,Y,3,2016-05-17,326,2016-05-28,337,"More protein leaking into the urine than usual, often a sign of kidne disease",Proteinuria,Renal and urinary disorders,N,N,SEVERE,NOT RELATED,"RESOLVED, RECOVERED",3
03-016,3,Site 03,24,F,Black,Placebo,2015-07-21,Y,,,,,,,,,,,,,,
03-017,3,Site 03,20,F,White,Treatment A,2015-05-04,Y,1,2015-09-11,131,2015-10-25,175,Slow heartbeat; regular rhythm,Sinus bradycardia,Cardiac disorders,N,Y,MILD,NOT RELATED,RECOVERED,1
03-017,3,Site 03,20,F,White,Treatment A,2015-05-04,Y,2,2016-03-12,314,2016-03-15,317,Sudden death of unknown cause(s),Sudden death NOS,General disorders and administration sit conditions,N,N,MILD,UNLIKELY RELATED,"RESOLVED, RECOVERED",2
03-018,3,Site 03,26,M,Hispanic,Treatment B,2015-04-28,Y,,,,,,,,,,,,,,
03-019,3,Site 03,19,M,Hispanic,Placebo,2015-05-30,Y,1,2016-01-09,225,2016-03-29,305,Inflammation (swelling and redness) in a joint (arthritis),Arthritis,Musculoskeletal and connective tissu disorders,N,Y,MODERATE,UNLIKELY RELATED,RECOVERED,1
03-019,3,Site 03,19,M,Hispanic,Placebo,2015-05-30,Y,2,2016-03-26,302,2016-04-08,315,Inflammation (swelling and redness) of the heart muscle,Myocarditis,Cardiac disorders,N,N,SEVERE,NOT RELATED,RESOLVED WITHOUT SEQUELAE,2
03-020,3,Site 03,32,M,Other/Mixed,Treatment A,2015-07-02,Y,,,,,,,,,,,,,,
03-021,3,Site 03,51,M,White,Treatment B,2015-11-12,Y,1,2015-12-26,45,2016-06-30,232,Infection in the throat,Pharyngitis,Infections and infestations,Y,N,MODERATE,UNLIKELY RELATED,RESOLVED WITHOUT SEQUELAE,1
03-021,3,Site 03,51,M,White,Treatment B,2015-11-12,Y,2,2016-04-09,150,2016-09-16,310,Inhibition of fetal growth resulting in the inability of the fetus t achieve its potential weight,Fetal growth retardation,"Pregnancy, puerperium and perinata conditions",N,N,MILD,UNLIKELY RELATED,"RESOLVED, RECOVERED",2
03-022,3,Site 03,49,M,Hispanic,Placebo,2015-05-14,Y,1,2015-10-04,144,2015-10-22,162,Decreased number of a type of white blood cel (neutrophil/granulocyte),Neutrophil count decreased,Investigations,N,N,MODERATE,NOT RELATED,RECOVERED,1
03-022,3,Site 03,49,M,Hispanic,Placebo,2015-05-14,Y,2,2015-10-21,161,2015-11-19,190,Exaggerated feeling of well being,Euphoria,Psychiatric disorders,N,N,MILD,POSSIBLY RELATED,RECOVERED,2
03-023,3,Site 03,46,M,Other/Mixed,Treatment A,2015-01-21,Y,1,2015-08-18,210,2015-08-18,210,Bleeding in the central area of the chest,Mediastinal hemorrhage,"Respiratory, thoracic and mediastina disorders",N,Y,MILD,NOT RELATED,RECOVERED,1
03-024,3,Site 03,52,M,Hispanic,Placebo,2015-03-26,Y,1,2015-11-29,249,2015-12-06,256,Disease of the teeth or gums,Periodontal disease,Gastrointestinal disorders,N,Y,MODERATE,UNLIKELY RELATED,"RESOLVED, RECOVERED",1
03-024,3,Site 03,52,M,Hispanic,Placebo,2015-03-26,Y,2,2016-02-24,336,2016-03-01,342,Stiff neck,Joint range of motion decreased cervica spine,Musculoskeletal and connective tissu disorders,N,N,MILD,UNLIKELY RELATED,RECOVERED,2
03-025,3,Site 03,27,F,White,Treatment B,2015-03-17,N,,,,,,,,,,,,,,
03-026,3,Site 03,53,F,Black,Treatment B,2015-04-30,Y,,,,,,,,,,,,,,
03-027,3,Site 03,49,M,Hispanic,Treatment A,2015-05-13,Y,1,2015-09-14,125,2016-01-12,245,Leakage from the small bowel due to breakdown of a anastomosis (surgical connection between two body structures),Small intestinal anastomotic leak,"Injury, poisoning and procedural complications",Y,N,MILD,PROBABLY RELATED,RECOVERED,1
03-027,3,Site 03,49,M,Hispanic,Treatment A,2015-05-13,Y,2,2015-09-24,135,2015-10-10,151,Decreased blood level of corticotrophin (a hormone produced b the pituitary gland),Blood corticotrophin decreased,Investigations,N,N,MILD,DEFINITELY RELATED,RESOLVED WITH SEQUELAE,2
03-027,3,Site 03,49,M,Hispanic,Treatment A,2015-05-13,Y,3,2016-03-23,316,2016-04-20,344,Build up of a large amount of fluid between the layers of tissue tha line the lungs and chest cavity,Pleural effusion,"Respiratory, thoracic and mediastina disorders",N,Y,MILD,PROBABLY RELATED,RESOLVED WITHOUT SEQUELAE,3
03-028,3,Site 03,37,F,Other/Mixed,Treatment B,2015-05-11,Y,1,2016-01-12,247,2016-01-15,250,Death of tissue in the throat,Pharyngeal necrosis,"Respiratory, thoracic and mediastina disorders",N,Y,MILD,POSSIBLY RELATED,RESOLVED WITHOUT SEQUELAE,1
03-028,3,Site 03,37,F,Other/Mixed,Treatment B,2015-05-11,Y,2,2016-04-20,346,2016-04-22,348,Abnormal amount of air that is exhaled by following a maxima inhalation,Vital capacity abnormal,Investigations,N,Y,SEVERE,PROBABLY RELATED,RESOLVED WITHOUT SEQUELAE,2
03-029,3,Site 03,37,F,Other/Mixed,Placebo,2015-03-09,Y,1,2015-05-05,58,2015-07-17,131,Damage to the head and neck during surgery,Intraoperative head and neck injury,"Injury, poisoning and procedura complications",N,Y,MILD,UNLIKELY RELATED,RECOVERED,1
03-029,3,Site 03,37,F,Other/Mixed,Placebo,2015-03-09,Y,2,2015-05-22,75,2015-11-23,260,Irregular menstrual periods,Irregular menstruation,Reproductive system and breast disorders,N,Y,MILD,PROBABLY RELATED,"RESOLVED, RECOVERED",2
03-029,3,Site 03,37,F,Other/Mixed,Placebo,2015-03-09,Y,3,2015-09-05,181,2016-03-06,364,Abnormal electrical conduction within the heart,Electrocardiogram QT corrected interva prolonged,Investigations,N,Y,MILD,UNLIKELY RELATED,"RESOLVED, RECOVERED",3
03-030,3,Site 03,25,M,Hispanic,Treatment B,2015-10-24,N,,,,,,,,,,,,,,
04-001,4,Site 04,26,F,Hispanic,Treatment B,2015-10-12,Y,1,2015-11-15,35,2016-03-31,172,Fever associated with dangerously low levels of a type of whit blood cell (neutrophils),Febrile neutropenia,Blood and lymphatic system disorders,N,Y,MODERATE,PROBABLY RELATED,RESOLVED WITHOUT SEQUELAE,1
04-001,4,Site 04,26,F,Hispanic,Treatment B,2015-10-12,Y,2,2016-04-25,197,2016-04-25,197,Disease of the teeth or gums,Periodontal disease,Gastrointestinal disorders,N,Y,MILD,NOT RELATED,"RESOLVED, RECOVERED",2
04-001,4,Site 04,26,F,Hispanic,Treatment B,2015-10-12,Y,3,2016-08-20,314,2016-09-19,344,Fear of light,Photophobia,Eye disorders,N,N,MILD,POSSIBLY RELATED,"RESOLVED, RECOVERED",3
04-002,4,Site 04,21,M,Hispanic,Placebo,2015-02-11,N,,,,,,,,,,,,,,
04-003,4,Site 04,54,F,White,Treatment A,2015-06-20,Y,1,2015-12-14,178,2016-02-10,236,Hole between saliva (spit)-producing gland and another orga,Salivary gland fistula,Gastrointestinal disorders,N,Y,MILD,PROBABLY RELATED,"RESOLVED, RECOVERED",1
04-003,4,Site 04,54,F,White,Treatment A,2015-06-20,Y,2,2015-12-21,185,2016-01-08,203,Speech problems,Dysphasia,Nervous system disorders,N,N,MILD,UNLIKELY RELATED,RESOLVED WITH SEQUELAE,2
04-003,4,Site 04,54,F,White,Treatment A,2015-06-20,Y,3,2016-05-01,317,2016-05-29,345,Inflammation (swelling and redness) of the skin of outer ear an canal,External ear inflammation,Ear and labyrinth disorders,N,N,MODERATE,NOT RELATED,"RESOLVED, RECOVERED",3
04-004,4,Site 04,25,M,Other/Mixed,Treatment A,2015-11-17,Y,1,2015-12-03,17,2016-07-03,230,Bleeding in the esophagus (gullet or the tube that goes from th mouth to the stomach),Esophageal hemorrhage,Gastrointestinal disorders,N,Y,SEVERE,NOT RELATED,RECOVERED,1
04-004,4,Site 04,25,M,Other/Mixed,Treatment A,2015-11-17,Y,2,2016-01-02,47,2016-09-29,318,Damage to the urinary tract during surgery,Intraoperative urinary injury,"Injury, poisoning and procedura complications",N,N,SEVERE,NOT RELATED,RECOVERED,2
04-004,4,Site 04,25,M,Other/Mixed,Treatment A,2015-11-17,Y,3,2016-01-03,48,2016-01-11,56,Bleeding in the brain,Intracranial hemorrhage,Nervous system disorders,N,N,MILD,POSSIBLY RELATED,RESOLVED WITH SEQUELAE,3
04-004,4,Site 04,25,M,Other/Mixed,Treatment A,2015-11-17,Y,4,2016-03-01,106,2016-10-09,328,Bleeding in an area of the small bowel (jejunum,Jejunal hemorrhage,Gastrointestinal disorders,Y,N,MODERATE,DEFINITELY RELATED,RESOLVED WITHOUT SEQUELAE,4
04-004,4,Site 04,25,M,Other/Mixed,Treatment A,2015-11-17,Y,5,2016-04-17,153,2016-07-01,228,Death of tissue of the belly wall,Abdominal soft tissue necrosis,Musculoskeletal and connective tissu disorders,N,N,MILD,POSSIBLY RELATED,"RESOLVED, RECOVERED",5
04-005,4,Site 04,39,M,Black,Placebo,2015-08-03,Y,1,2016-01-16,167,2016-01-17,168,Increased number of a type of white blood cell (lymphocyte,Lymphocyte count increased,Investigations,N,N,MILD,DEFINITELY RELATED,"RESOLVED, RECOVERED",1
04-005,4,Site 04,39,M,Black,Placebo,2015-08-03,Y,2,2016-01-22,173,2016-03-24,235,Increased number of white blood cells (leukocytes) in the peripher blood,Leukocytosis,Blood and lymphatic system disorders,N,N,MILD,POSSIBLY RELATED,RECOVERED,2
04-005,4,Site 04,39,M,Black,Placebo,2015-08-03,Y,3,2016-01-31,182,2016-02-05,187,Destruction of red blood cells,Hemolysis,Blood and lymphatic system disorders,N,N,MILD,UNLIKELY RELATED,RECOVERED,3
04-006,4,Site 04,42,M,White,Treatment B,2015-08-18,Y,1,2015-08-24,7,2016-02-25,192,"Extremely elevated mood, energy, unusual thought patterns, an sometimes psychosis (mental state often described as involving a ""loss of contact with reality"")",Mania,Psychiatric disorders,N,N,MILD,UNLIKELY RELATED,"RESOLVED, RECOVERED",1
04-006,4,Site 04,42,M,White,Treatment B,2015-08-18,Y,2,2016-01-05,141,2016-03-09,205,Decreased levels of a blood protein called albumin,Hypoalbuminemia,Metabolism and nutrition disorders,N,N,MILD,UNLIKELY RELATED,RECOVERED,2
04-006,4,Site 04,42,M,White,Treatment B,2015-08-18,Y,3,2016-03-05,201,2016-06-12,300,Development of male physical characteristics in females,Virilization,Endocrine disorders,N,N,MILD,DEFINITELY RELATED,RECOVERED,3
04-006,4,Site 04,42,M,White,Treatment B,2015-08-18,Y,4,2016-03-15,211,2016-04-04,231,Uncontrolled contractions of the muscles of the vocal cords,Laryngospasm,"Respiratory, thoracic and mediastina disorders",N,Y,MILD,UNLIKELY RELATED,"RESOLVED, RECOVERED",4
04-006,4,Site 04,42,M,White,Treatment B,2015-08-18,Y,5,2016-04-15,242,2016-05-27,284,Major change in thinking patterns,Cognitive disturbance,Nervous system disorders,Y,Y,SEVERE,POSSIBLY RELATED,RECOVERED,5
04-007,4,Site 04,23,F,Hispanic,Treatment A,2015-11-14,Y,1,2015-11-15,2,2015-12-09,26,Slow heartbeat; regular rhythm,Sinus bradycardia,Cardiac disorders,N,Y,MILD,NOT RELATED,"RESOLVED, RECOVERED",1
04-007,4,Site 04,23,F,Hispanic,Treatment A,2015-11-14,Y,2,2016-04-06,145,2016-06-05,205,Premature opening of a wound along surgical stitches after surgery,Wound dehiscence,"Injury, poisoning and procedura complications",N,Y,MILD,NOT RELATED,RECOVERED,2
04-007,4,Site 04,23,F,Hispanic,Treatment A,2015-11-14,Y,3,2016-10-19,341,2016-11-01,354,"Increased blood pressure in the system of veins called the porta venous system (blood vessels coming from the stomach, intestine, spleen, and pancreas, merging into the portal vein that flows to the liver)",Portal hypertension,Hepatobiliary disorders,N,N,MODERATE,UNLIKELY RELATED,"RESOLVED, RECOVERED",3
04-008,4,Site 04,43,M,White,Treatment B,2015-07-08,Y,1,2016-02-13,221,2016-07-05,364,Rapid heart rate caused by extra electrical pathway in the hear,Wolff-Parkinson-White syndrome,Cardiac disorders,N,N,MILD,NOT RELATED,RESOLVED WITHOUT SEQUELAE,1
04-008,4,Site 04,43,M,White,Treatment B,2015-07-08,Y,2,2016-02-22,230,2016-02-27,235,Irregular heartbeat.  A complete blockage of electrical signals fro the upper chambers of the heart (atria) to the lower chambers. (ventricle),Atrioventricular block complete,Cardiac disorders,N,N,MODERATE,NOT RELATED,RECOVERED,2
04-008,4,Site 04,43,M,White,Treatment B,2015-07-08,Y,3,2016-05-14,312,2016-06-20,349,Nose bleed,Epistaxis,"Respiratory, thoracic and mediastina disorders",N,Y,MILD,PROBABLY RELATED,RECOVERED,3
04-009,4,Site 04,31,F,Black,Placebo,2015-04-10,Y,1,2015-04-18,9,2016-02-18,315,Development of male physical characteristics in females,Virilization,Endocrine disorders,N,Y,MILD,NOT RELATED,RECOVERED,1
04-009,4,Site 04,31,F,Black,Placebo,2015-04-10,Y,2,2015-04-26,17,2015-10-07,181,Infection of the nerves that come from the brain and exit throug openings in the skull,Cranial nerve infection,Infections and infestations,N,N,MODERATE,NOT RELATED,RECOVERED,2
04-009,4,Site 04,31,F,Black,Placebo,2015-04-10,Y,3,2015-05-06,27,2015-09-14,158,Impotence or the inability to have or maintain an erection durin sexual intercourse,Erectile dysfunction,Reproductive system and breast disorders,N,Y,MILD,POSSIBLY RELATED,"RESOLVED, RECOVERED",3
04-009,4,Site 04,31,F,Black,Placebo,2015-04-10,Y,4,2015-07-21,103,2015-11-10,215,Increased blood level of a digestive enzyme (amylase,Serum amylase increased,Investigations,N,N,MILD,POSSIBLY RELATED,RECOVERED,4
04-009,4,Site 04,31,F,Black,Placebo,2015-04-10,Y,5,2016-03-20,346,2016-03-27,353,Sore throat,Sore throat,"Respiratory, thoracic and mediastina disorders",N,N,MILD,DEFINITELY RELATED,RECOVERED,5
04-010,4,Site 04,39,F,Hispanic,Placebo,2015-01-22,Y,,,,,,,,,,,,,,
04-011,4,Site 04,44,M,White,Treatment B,2015-11-26,Y,1,2015-12-21,26,2016-07-03,221,Bleeding in the large bowe,Colonic hemorrhage,Gastrointestinal disorders,N,N,MODERATE,PROBABLY RELATED,"RESOLVED, RECOVERED",1
04-011,4,Site 04,44,M,White,Treatment B,2015-11-26,Y,2,2015-12-22,27,2016-07-13,231,Infection of the esophagus (gullet or the tube that goes from th mouth to the stomach),Esophageal infection,Infections and infestations,N,Y,MILD,PROBABLY RELATED,RESOLVED WITHOUT SEQUELAE,2
04-011,4,Site 04,44,M,White,Treatment B,2015-11-26,Y,3,2016-01-01,37,2016-06-10,198,Hole in an area of the small bowel (jejunum,Jejunal perforation,Gastrointestinal disorders,N,N,MODERATE,NOT RELATED,RECOVERED,3
04-011,4,Site 04,44,M,White,Treatment B,2015-11-26,Y,4,2016-09-05,285,2016-11-10,351,Increased blood level of sodium,Hypernatremia,Metabolism and nutrition disorders,N,N,MODERATE,POSSIBLY RELATED,RESOLVED WITH SEQUELAE,4
04-012,4,Site 04,49,M,Hispanic,Treatment A,2015-08-16,Y,,,,,,,,,,,,,,
04-013,4,Site 04,18,M,Hispanic,Treatment B,2015-11-06,Y,,,,,,,,,,,,,,
04-014,4,Site 04,19,M,Hispanic,Treatment A,2015-04-22,Y,1,2015-05-14,23,2015-12-16,239,Hoarseness,Hoarseness,"Respiratory, thoracic and mediastina disorders",N,Y,MILD,DEFINITELY RELATED,"RESOLVED, RECOVERED",1
04-014,4,Site 04,19,M,Hispanic,Treatment A,2015-04-22,Y,2,2015-12-09,232,2016-02-12,297,Failure of the right lower chamber of the heart (ventricle) caused b long-term high blood pressure in the lungs,Right ventricular dysfunction,Cardiac disorders,N,N,MILD,POSSIBLY RELATED,RECOVERED,2
04-014,4,Site 04,19,M,Hispanic,Treatment A,2015-04-22,Y,3,2016-01-01,255,2016-02-13,298,Bleeding in the belly,Intra-abdominal hemorrhage,Gastrointestinal disorders,N,N,MILD,DEFINITELY RELATED,"RESOLVED, RECOVERED",3
04-014,4,Site 04,19,M,Hispanic,Treatment A,2015-04-22,Y,4,2016-02-01,286,2016-02-06,291,Leakage from the vas deferens (the tube connecting the testes wit the urethra [the tube which connects the bladder to the outside of the body]) due to breakdown of a anastomosis (surgical connection between two body structures),Vas deferens anastomotic leak,"Injury, poisoning and procedural complications",N,Y,MILD,DEFINITELY RELATED,"RESOLVED, RECOVERED",4
04-014,4,Site 04,19,M,Hispanic,Treatment A,2015-04-22,Y,5,2016-03-06,320,2016-04-14,359,Abnomal level of antidiuretic hormone (a hormone that regulates t body's retention of water),Blood antidiuretic hormone abnormal,Investigations,N,N,SEVERE,DEFINITELY RELATED,RECOVERED,5
04-015,4,Site 04,52,M,Other/Mixed,Treatment B,2015-05-25,Y,,,,,,,,,,,,,,
04-016,4,Site 04,27,F,Black,Treatment B,2015-12-13,Y,,,,,,,,,,,,,,
04-017,4,Site 04,28,F,Hispanic,Treatment A,2015-05-28,Y,1,2015-08-20,85,2015-12-14,201,Bile duct infection,Biliary tract infection,Infections and infestations,N,Y,MILD,POSSIBLY RELATED,RESOLVED WITHOUT SEQUELAE,1
04-017,4,Site 04,28,F,Hispanic,Treatment A,2015-05-28,Y,2,2015-10-13,139,2016-03-30,308,Accumulation of air in the pleural cavity (the space that surround the lungs) causing the lung to collapse,Pneumothorax,"Respiratory, thoracic and mediastina disorders",N,Y,MODERATE,PROBABLY RELATED,RESOLVED WITH SEQUELAE,2
04-017,4,Site 04,28,F,Hispanic,Treatment A,2015-05-28,Y,3,2016-02-03,252,2016-05-11,350,"Mental illness often described as involving a ""loss of contact wit reality"" which can be associated with bipolar disorder (manic- depressive) or brain tumor",Psychosis,Psychiatric disorders,N,N,MODERATE,POSSIBLY RELATED,RESOLVED WITHOUT SEQUELAE,3
04-017,4,Site 04,28,F,Hispanic,Treatment A,2015-05-28,Y,4,2016-03-16,294,2016-04-28,337,"bleeding in hemorrhoids (swollen or irritated blood vessels in th anus and rectum, also known as piles)",Hemorrhoidal hemorrhage,Gastrointestinal disorders,N,N,MILD,PROBABLY RELATED,"RESOLVED, RECOVERED",4
04-018,4,Site 04,42,M,Other/Mixed,Placebo,2015-01-27,N,,,,,,,,,,,,,,
04-019,4,Site 04,26,F,White,Treatment A,2015-06-13,N,,,,,,,,,,,,,,
04-020,4,Site 04,55,F,Other/Mixed,Placebo,2015-01-21,Y,1,2015-02-19,30,2015-03-26,65,Type of pleural effusion (excess fluid in the pleural cavity [(the bod cavity that surrounds the lungs]),Chylothorax,"Respiratory, thoracic and mediastina disorders",N,N,MILD,UNLIKELY RELATED,"RESOLVED, RECOVERED",1
04-020,4,Site 04,55,F,Other/Mixed,Placebo,2015-01-21,Y,2,2015-03-05,44,2015-11-08,292,Blockage of or in the voice box,Laryngeal obstruction,"Respiratory, thoracic and mediastina disorders",N,N,MILD,POSSIBLY RELATED,RESOLVED WITHOUT SEQUELAE,2
04-020,4,Site 04,55,F,Other/Mixed,Placebo,2015-01-21,Y,3,2015-03-13,52,2015-11-29,313,Thoughts of taking ones own life,Suicidal ideation,Psychiatric disorders,N,N,MODERATE,POSSIBLY RELATED,"RESOLVED, RECOVERED",3
04-020,4,Site 04,55,F,Other/Mixed,Placebo,2015-01-21,Y,4,2015-07-04,165,2015-12-24,338,Leakage from the vas deferens (the tube connecting the testes wit the urethra [the tube which connects the bladder to the outside of the body]) due to breakdown of a anastomosis (surgical connection between two body structures),Vas deferens anastomotic leak,"Injury, poisoning and procedural complications",N,N,MILD,UNLIKELY RELATED,RESOLVED WITH SEQUELAE,4
04-020,4,Site 04,55,F,Other/Mixed,Placebo,2015-01-21,Y,5,2015-08-01,193,2015-10-19,272,Blockage of the small bowe,Small intestinal obstruction,Gastrointestinal disorders,N,Y,MILD,NOT RELATED,RESOLVED WITHOUT SEQUELAE,5
04-021,4,Site 04,24,F,White,Treatment B,2015-09-14,Y,1,2015-10-27,44,2015-11-13,61,Severe illness in which the bloodstream is overwhelmed by bacteria,Sepsis,Infections and infestations,N,N,MILD,POSSIBLY RELATED,"RESOLVED, RECOVERED",1
04-021,4,Site 04,24,F,White,Treatment B,2015-09-14,Y,2,2015-11-05,53,2016-01-29,138,Bleeding in or from the pancreas,Pancreatic hemorrhage,Gastrointestinal disorders,N,N,MILD,UNLIKELY RELATED,"RESOLVED, RECOVERED",2
04-021,4,Site 04,24,F,White,Treatment B,2015-09-14,Y,3,2015-12-01,79,2016-07-20,311,Bleeding in the vagina,Vaginal hemorrhage,Reproductive system and breast disorders,N,N,SEVERE,NOT RELATED,RESOLVED WITHOUT SEQUELAE,3
04-021,4,Site 04,24,F,White,Treatment B,2015-09-14,Y,4,2015-12-12,90,2016-06-03,264,Inability to control bowel movements thus allowing the escape o feces from the rectum,Fecal incontinence,Gastrointestinal disorders,N,Y,MODERATE,UNLIKELY RELATED,RESOLVED WITHOUT SEQUELAE,4
04-022,4,Site 04,21,M,White,Placebo,2015-06-20,Y,1,2015-07-24,35,2015-12-09,173,Abnormal build up of fluid in the lungs,Pulmonary edema,"Respiratory, thoracic and mediastina disorders",N,Y,MILD,PROBABLY RELATED,"RESOLVED, RECOVERED",1
04-022,4,Site 04,21,M,White,Placebo,2015-06-20,Y,2,2015-08-05,47,2016-06-01,348,Potentially life-threatening condition affecting less than 10% of th skin in which cell death causes the epidermis (outer layer) to separate from the dermis (middle layer),Stevens-Johnson syndrome,Skin and subcutaneous tissue disorders,N,N,MODERATE,PROBABLY RELATED,RECOVERED,2
04-022,4,Site 04,21,M,White,Placebo,2015-06-20,Y,3,2015-11-18,152,2015-12-25,189,Infection of the ovaries,Ovarian infection,Infections and infestations,Y,Y,MILD,NOT RELATED,RESOLVED WITH SEQUELAE,3
04-022,4,Site 04,21,M,White,Placebo,2015-06-20,Y,4,2015-12-28,192,2016-05-21,337,Death of tissue of the belly wall,Abdominal soft tissue necrosis,Musculoskeletal and connective tissu disorders,Y,N,MILD,DEFINITELY RELATED,RECOVERED,4
04-022,4,Site 04,21,M,White,Placebo,2015-06-20,Y,5,2016-02-27,253,2016-04-10,296,"Partial paralysis or loss of muscle function (paresis) of the stomac (""gastro-""), resulting in food remaining in the stomach for a longer period of time than normal",Gastroparesis,Gastrointestinal disorders,N,N,MODERATE,POSSIBLY RELATED,RECOVERED,5
04-023,4,Site 04,54,F,White,Placebo,2015-12-27,Y,1,2016-11-21,331,2016-12-03,343,Hole in the wall of the fallopian tube (tube between ovary to uteru [womb]),Fallopian tube perforation,"Injury, poisoning and procedura complications",N,N,SEVERE,POSSIBLY RELATED,RECOVERED,1
04-024,4,Site 04,21,M,Hispanic,Treatment A,2015-10-04,Y,,,,,,,,,,,,,,
04-025,4,Site 04,26,M,Other/Mixed,Placebo,2015-05-05,Y,1,2015-08-24,112,2016-05-01,363,Windpipe infection,Tracheitis,Infections and infestations,N,N,MILD,DEFINITELY RELATED,RESOLVED WITH SEQUELAE,1
04-025,4,Site 04,26,M,Other/Mixed,Placebo,2015-05-05,Y,2,2016-01-10,251,2016-04-14,346,Bleeding from the lungs,Bronchopulmonary hemorrhage,"Respiratory, thoracic and mediastina disorders",N,N,MILD,DEFINITELY RELATED,RECOVERED,2
04-025,4,Site 04,26,M,Other/Mixed,Placebo,2015-05-05,Y,3,2016-03-20,321,2016-03-20,321,Leakage of the clear fluid (lymph) that travels through the lymphati vessels and carries cells that help fight infections and other diseases,Lymph leakage,Vascular disorders,N,N,MILD,PROBABLY RELATED,RESOLVED WITHOUT SEQUELAE,3
04-026,4,Site 04,26,M,Black,Treatment A,2015-08-08,Y,,,,,,,,,,,,,,
04-027,4,Site 04,27,M,Other/Mixed,Placebo,2015-07-03,Y,1,2015-09-12,72,2016-01-21,203,Damage to the spleen during surgery,Intraoperative splenic injury,"Injury, poisoning and procedura complications",N,N,SEVERE,POSSIBLY RELATED,RESOLVED WITHOUT SEQUELAE,1
04-027,4,Site 04,27,M,Other/Mixed,Placebo,2015-07-03,Y,2,2016-04-05,278,2016-05-04,307,Infection of the finger or toenails,Nail infection,Infections and infestations,N,N,MODERATE,DEFINITELY RELATED,"RESOLVED, RECOVERED",2
04-027,4,Site 04,27,M,Other/Mixed,Placebo,2015-07-03,Y,3,2016-06-06,340,2016-06-29,363,Increased blood level of a liver enzyme (ALT/SGPT,Alanine aminotransferase increased,Investigations,N,Y,MODERATE,POSSIBLY RELATED,RESOLVED WITHOUT SEQUELAE,3
04-028,4,Site 04,28,M,White,Treatment A,2015-01-14,Y,,,,,,,,,,,,,,
04-029,4,Site 04,51,M,Black,Placebo,2015-01-24,Y,1,2015-03-13,49,2015-06-02,130,Bone infection,Bone infection,Infections and infestations,N,N,MILD,POSSIBLY RELATED,"RESOLVED, RECOVERED",1
04-029,4,Site 04,51,M,Black,Placebo,2015-01-24,Y,2,2015-06-04,132,2015-10-07,257,Bleeding in or from the mouth,Oral hemorrhage,Gastrointestinal disorders,N,N,MILD,POSSIBLY RELATED,"RESOLVED, RECOVERED",2
04-029,4,Site 04,51,M,Black,Placebo,2015-01-24,Y,3,2015-07-24,182,2015-08-12,201,Infection of both the small and large bowe,Enterocolitis infectious,Infections and infestations,N,N,MODERATE,PROBABLY RELATED,RECOVERED,3
04-029,4,Site 04,51,M,Black,Placebo,2015-01-24,Y,4,2015-08-08,197,2015-10-01,251,"Episode of near-fainting which may include lightheadednes dizziness, severe weakness, blurred vision, which may come before a fainting episode",Presyncope,Nervous system disorders,N,Y,MODERATE,POSSIBLY RELATED,RECOVERED,4
04-029,4,Site 04,51,M,Black,Placebo,2015-01-24,Y,5,2015-11-29,310,2016-01-18,360,"Infection of the peripheral nerves (nerves in the face, arms, legs torso, and some cranial nerves of the head)",Peripheral nerve infection,Infections and infestations,N,Y,MODERATE,NOT RELATED,RESOLVED WITHOUT SEQUELAE,5
04-030,4,Site 04,42,F,Other/Mixed,Treatment A,2015-06-16,Y,1,2015-06-19,4,2015-10-20,127,Sudden decrease of kidney function,Acute kidney injury,Renal and urinary disorders,Y,N,MILD,NOT RELATED,RESOLVED WITHOUT SEQUELAE,1
04-030,4,Site 04,42,F,Other/Mixed,Treatment A,2015-06-16,Y,2,2015-07-23,38,2015-08-03,49,Blockage in an area of the small bowel (jejunum,Jejunal obstruction,Gastrointestinal disorders,N,N,MODERATE,NOT RELATED,RECOVERED,2
04-030,4,Site 04,42,F,Other/Mixed,Treatment A,2015-06-16,Y,3,2015-08-23,69,2015-11-10,148,Inflammation (swelling and redness) of the esophagus (gullet or the tube that goes from mouth to stomach through which food passes),Esophagitis,Gastrointestinal disorders,N,Y,MILD,UNLIKELY RELATED,"RESOLVED, RECOVERED",3
04-030,4,Site 04,42,F,Other/Mixed,Treatment A,2015-06-16,Y,4,2015-11-04,142,2015-12-08,176,Sudden constriction of the small airways of the lung that can caus wheezing and shortness of breath,Bronchospasm,"Respiratory, thoracic and mediastina disorders",N,N,MILD,NOT RELATED,RESOLVED WITH SEQUELAE,4
05-001,5,Site 05,43,F,White,Treatment B,2015-02-06,Y,1,2015-02-08,3,2015-05-30,114,Low body temperature,Hypothermia,General disorders and administration sit conditions,N,N,MILD,DEFINITELY RELATED,"RESOLVED, RECOVERED",1
05-001,5,Site 05,43,F,White,Treatment B,2015-02-06,Y,2,2015-06-09,124,2015-10-21,258,Narrowing of the stomach,Gastric stenosis,Gastrointestinal disorders,N,Y,MILD,NOT RELATED,RECOVERED,2
05-001,5,Site 05,43,F,White,Treatment B,2015-02-06,Y,3,2015-06-12,127,2015-07-01,146,Decreased blood level of corticotrophin (a hormone produced b the pituitary gland),Blood corticotrophin decreased,Investigations,N,Y,MILD,POSSIBLY RELATED,RECOVERED,3
05-001,5,Site 05,43,F,White,Treatment B,2015-02-06,Y,4,2015-06-21,136,2015-12-12,310,Stroke caused by decreased blood flow to the brain,Ischemia cerebrovascular,Nervous system disorders,N,N,MILD,NOT RELATED,RESOLVED WITHOUT SEQUELAE,4
05-002,5,Site 05,18,M,White,Treatment B,2015-10-08,Y,1,2015-12-30,84,2016-03-23,168,Brain and spinal cord infection,Encephalomyelitis infection,Infections and infestations,N,Y,SEVERE,PROBABLY RELATED,RECOVERED,1
05-002,5,Site 05,18,M,White,Treatment B,2015-10-08,Y,2,2016-04-26,202,2016-09-03,332,"Collection of heart rhythm signs/symptoms that include: Sinu bradycardia (a slow heartbeat, Tachycardias (a fast heartbeat), Bradycardia-tachycardia (an alternating slow and fast heart rhythms)",Sick sinus syndrome,Cardiac disorders,N,N,MILD,POSSIBLY RELATED,RECOVERED,2
05-002,5,Site 05,18,M,White,Treatment B,2015-10-08,Y,3,2016-06-14,251,2016-07-16,283,Dehydration (when your body does not have as much water an fluid as it should),Dehydration,Metabolism and nutrition disorders,N,N,MILD,NOT RELATED,"RESOLVED, RECOVERED",3
05-003,5,Site 05,24,F,Other/Mixed,Treatment B,2015-04-23,Y,,,,,,,,,,,,,,
05-004,5,Site 05,45,F,Black,Treatment A,2015-12-06,Y,1,2016-04-12,129,2016-04-23,140,Abnormality of the spleen,Spleen disorder,Blood and lymphatic system disorders,N,Y,MILD,NOT RELATED,RECOVERED,1
05-004,5,Site 05,45,F,Black,Treatment A,2015-12-06,Y,2,2016-07-10,218,2016-07-11,219,Face pain,Facial pain,General disorders and administration sit conditions,N,N,SEVERE,DEFINITELY RELATED,RESOLVED WITHOUT SEQUELAE,2
05-005,5,Site 05,47,M,White,Placebo,2015-10-30,Y,1,2016-04-04,158,2016-08-31,307,Muscle weakness of the left side of the body,Muscle weakness left-sided,Musculoskeletal and connective tissu disorders,N,Y,MILD,PROBABLY RELATED,RECOVERED,1
05-005,5,Site 05,47,M,White,Placebo,2015-10-30,Y,2,2016-06-25,240,2016-10-15,352,Death of tissue in the esophagus (gullet or the tube that goes fro mouth to stomach through which food passes),Esophageal necrosis,Gastrointestinal disorders,N,Y,MODERATE,NOT RELATED,"RESOLVED, RECOVERED",2
05-005,5,Site 05,47,M,White,Placebo,2015-10-30,Y,3,2016-09-06,313,2016-09-21,328,Damage to an artery (a blood vessel that carries blood from th heart to the rest of the body),Arterial injury,"Injury, poisoning and procedura complications",N,Y,MILD,NOT RELATED,RECOVERED,3
05-006,5,Site 05,31,F,Hispanic,Treatment B,2015-04-25,Y,1,2015-05-07,13,2015-07-13,80,"""Spider veins"" (enlarged blood vessels near the skin surface",Telangiectasia,Skin and subcutaneous tissue disorders,N,Y,MODERATE,DEFINITELY RELATED,RECOVERED,1
05-006,5,Site 05,31,F,Hispanic,Treatment B,2015-04-25,Y,2,2015-06-11,48,2015-12-07,227,Abnormal hole between the lower breathing tube and the bod cavity that surrounds the lungs,Bronchopleural fistula,"Respiratory, thoracic and mediastina disorders",N,Y,MODERATE,POSSIBLY RELATED,RECOVERED,2
05-006,5,Site 05,31,F,Hispanic,Treatment B,2015-04-25,Y,3,2015-10-23,182,2016-01-03,254,Damage to a blood vessel that carries blood from the heart durin surgery,Intraoperative arterial injury,"Injury, poisoning and procedura complications",N,Y,MILD,UNLIKELY RELATED,"RESOLVED, RECOVERED",3
05-006,5,Site 05,31,F,Hispanic,Treatment B,2015-04-25,Y,4,2016-03-15,326,2016-03-30,341,Excess fluid dripping in the back of the throat and/or the nose,Postnasal drip,"Respiratory, thoracic and mediastina disorders",N,Y,MILD,UNLIKELY RELATED,RESOLVED WITHOUT SEQUELAE,4
05-007,5,Site 05,21,M,Hispanic,Placebo,2015-10-15,N,,,,,,,,,,,,,,
05-008,5,Site 05,21,F,Hispanic,Treatment B,2015-11-12,Y,1,2015-11-15,4,2015-12-13,32,Broken bone in the spinal column,Spinal fracture,"Injury, poisoning and procedura complications",N,N,MODERATE,DEFINITELY RELATED,RECOVERED,1
05-008,5,Site 05,21,F,Hispanic,Treatment B,2015-11-12,Y,2,2016-04-02,143,2016-07-05,237,General feeling of discomfort or being unwell or out of sorts,Malaise,General disorders and administration sit conditions,N,N,MILD,NOT RELATED,"RESOLVED, RECOVERED",2
05-008,5,Site 05,21,F,Hispanic,Treatment B,2015-11-12,Y,3,2016-08-23,286,2016-10-16,340,"Noticible changes in a persons personality, behavior, and thinking",Personality change,Psychiatric disorders,N,Y,SEVERE,UNLIKELY RELATED,"RESOLVED, RECOVERED",3
05-008,5,Site 05,21,F,Hispanic,Treatment B,2015-11-12,Y,4,2016-11-09,364,2016-11-10,365,Damage to the heart during surgery,Intraoperative cardiac injury,"Injury, poisoning and procedura complications",N,N,MILD,NOT RELATED,"RESOLVED, RECOVERED",4
05-009,5,Site 05,40,F,Hispanic,Treatment B,2015-11-26,Y,1,2016-05-03,160,2016-09-14,294,Throat pain,Pharyngolaryngeal pain,"Respiratory, thoracic and mediastina disorders",N,N,MODERATE,NOT RELATED,"RESOLVED, RECOVERED",1
05-009,5,Site 05,40,F,Hispanic,Treatment B,2015-11-26,Y,2,2016-05-04,161,2016-06-10,198,Abnormally high level of thyroid gland hormon,Hyperthyroidism,Endocrine disorders,N,Y,MILD,PROBABLY RELATED,RESOLVED WITHOUT SEQUELAE,2
05-010,5,Site 05,42,F,Hispanic,Placebo,2015-12-17,Y,1,2015-12-26,10,2016-07-31,228,Complete absence of sperm in semen,Azoospermia,Reproductive system and breast disorders,N,N,MODERATE,NOT RELATED,RECOVERED,1
05-010,5,Site 05,42,F,Hispanic,Placebo,2015-12-17,Y,2,2016-03-23,98,2016-03-30,105,Blockage of Fallopian tube (tube between ovary to uterus [womb]),Fallopian tube obstruction,Reproductive system and breast disorders,N,N,MILD,PROBABLY RELATED,"RESOLVED, RECOVERED",2
05-010,5,Site 05,42,F,Hispanic,Placebo,2015-12-17,Y,3,2016-07-16,213,2016-09-01,260,Pain in the testis,Testicular pain,Reproductive system and breast disorders,N,N,MILD,NOT RELATED,RESOLVED WITHOUT SEQUELAE,3
05-011,5,Site 05,43,M,Black,Treatment A,2015-11-16,Y,1,2015-11-23,8,2016-08-25,284,Decreased number of a type of white blood cell (lymphocyte,CD4 lymphocytes decreased,Investigations,N,Y,MODERATE,NOT RELATED,"RESOLVED, RECOVERED",1
05-011,5,Site 05,43,M,Black,Treatment A,2015-11-16,Y,2,2016-04-24,161,2016-06-04,202,Hole in the bladder,Bladder perforation,Renal and urinary disorders,N,N,MILD,UNLIKELY RELATED,RESOLVED WITH SEQUELAE,2
05-011,5,Site 05,43,M,Black,Treatment A,2015-11-16,Y,3,2016-06-19,217,2016-08-27,286,Death of tissue (necrosis) of the digestive tract,Gastrointestinal stoma necrosis,"Injury, poisoning and procedura complications",N,N,MILD,POSSIBLY RELATED,RESOLVED WITH SEQUELAE,3
05-011,5,Site 05,43,M,Black,Treatment A,2015-11-16,Y,4,2016-08-23,282,2016-08-27,286,Death of liver tissue,Hepatic necrosis,Hepatobiliary disorders,N,Y,SEVERE,NOT RELATED,RESOLVED WITH SEQUELAE,4
05-011,5,Site 05,43,M,Black,Treatment A,2015-11-16,Y,5,2016-10-16,336,2016-10-17,337,High blood pressure,Hypertension,Vascular disorders,N,N,MILD,NOT RELATED,RECOVERED,5
05-012,5,Site 05,26,M,White,Placebo,2015-06-03,Y,1,2015-12-04,185,2016-03-25,297,Abnormal amount of air that is exhaled by following a maxima inhalation,Vital capacity abnormal,Investigations,N,N,MILD,NOT RELATED,"RESOLVED, RECOVERED",1
05-012,5,Site 05,26,M,White,Placebo,2015-06-03,Y,2,2015-12-17,198,2015-12-21,202,Irritability,Irritability,General disorders and administration sit conditions,N,Y,MILD,NOT RELATED,"RESOLVED, RECOVERED",2
05-012,5,Site 05,26,M,White,Placebo,2015-06-03,Y,3,2016-01-25,237,2016-03-20,292,Damage to the liver during surgery,Intraoperative hepatobiliary injury,"Injury, poisoning and procedura complications",Y,N,MILD,NOT RELATED,"RESOLVED, RECOVERED",3
05-012,5,Site 05,26,M,White,Placebo,2015-06-03,Y,4,2016-03-31,303,2016-05-27,360,Exaggerated feeling of well being,Euphoria,Psychiatric disorders,N,Y,SEVERE,NOT RELATED,RECOVERED,4
05-012,5,Site 05,26,M,White,Placebo,2015-06-03,Y,5,2016-04-04,307,2016-04-06,309,Blockage or narrowing of a visceral artery (a blood vessel tha carries blood from the heart) located in an internal organ,Visceral arterial ischemia,Vascular disorders,N,N,MODERATE,DEFINITELY RELATED,RESOLVED WITHOUT SEQUELAE,5
05-013,5,Site 05,45,M,Black,Treatment A,2015-04-19,Y,1,2015-07-18,91,2016-01-30,287,Swelling or feeling of fullness and tightness in the abdomen (belly),Abdominal distension,Gastrointestinal disorders,Y,N,MILD,UNLIKELY RELATED,"RESOLVED, RECOVERED",1
05-013,5,Site 05,45,M,Black,Treatment A,2015-04-19,Y,2,2015-11-02,198,2016-01-07,264,Hemorrhoids (swollen or irritated blood vessels in the anus an rectum).  Also known as piles.,Hemorrhoids,Gastrointestinal disorders,N,N,MODERATE,NOT RELATED,"RESOLVED, RECOVERED",2
05-013,5,Site 05,45,M,Black,Treatment A,2015-04-19,Y,3,2016-01-05,262,2016-04-14,362,Partial or complete blockage of the small and/or large bowel.  Ileu is a functional rather than actual blockage of the bowel.,Ileus,Gastrointestinal disorders,N,Y,MILD,NOT RELATED,RESOLVED WITHOUT SEQUELAE,3
05-014,5,Site 05,24,M,Black,Treatment B,2015-10-26,Y,1,2016-03-12,139,2016-05-01,189,Abnormality of the spleen,Spleen disorder,Blood and lymphatic system disorders,N,N,MODERATE,UNLIKELY RELATED,RECOVERED,1
05-015,5,Site 05,48,M,Other/Mixed,Treatment B,2015-10-16,Y,1,2015-11-27,43,2016-03-08,145,Narrowing of a area of the small bowel (ileum,Ileal stenosis,Gastrointestinal disorders,N,N,MILD,PROBABLY RELATED,"RESOLVED, RECOVERED",1
05-015,5,Site 05,48,M,Other/Mixed,Treatment B,2015-10-16,Y,2,2015-12-19,65,2016-02-04,112,Skin rash characterized by pus-containing blister,Rash pustular,Infections and infestations,N,Y,SEVERE,NOT RELATED,"RESOLVED, RECOVERED",2
05-015,5,Site 05,48,M,Other/Mixed,Treatment B,2015-10-16,Y,3,2016-02-17,125,2016-06-27,256,Dehydration (when your body does not have as much water an fluid as it should),Dehydration,Metabolism and nutrition disorders,N,Y,MILD,PROBABLY RELATED,RESOLVED WITH SEQUELAE,3
05-016,5,Site 05,42,F,Black,Treatment B,2015-10-03,Y,1,2015-11-07,36,2016-04-12,193,Increased skin sensitivity to sunligh,Photosensitivity,Skin and subcutaneous tissue disorders,N,Y,MILD,UNLIKELY RELATED,RECOVERED,1
05-016,5,Site 05,42,F,Black,Treatment B,2015-10-03,Y,2,2016-01-02,92,2016-07-12,284,Bleeding in the kidney,Renal hemorrhage,Renal and urinary disorders,N,Y,MILD,UNLIKELY RELATED,RESOLVED WITHOUT SEQUELAE,2
05-016,5,Site 05,42,F,Black,Treatment B,2015-10-03,Y,3,2016-04-16,197,2016-09-06,340,Infection of the air tube from the windpipe to the lung,Bronchial infection,Infections and infestations,Y,N,SEVERE,POSSIBLY RELATED,RECOVERED,3
05-016,5,Site 05,42,F,Black,Treatment B,2015-10-03,Y,4,2016-06-18,260,2016-07-12,284,Taste changes,Dysgeusia,Nervous system disorders,N,Y,SEVERE,NOT RELATED,"RESOLVED, RECOVERED",4
05-017,5,Site 05,40,M,White,Placebo,2015-02-07,Y,1,2015-04-29,82,2015-12-27,324,Mouth pain,Oral pain,Gastrointestinal disorders,N,N,MODERATE,NOT RELATED,RECOVERED,1
05-017,5,Site 05,40,M,White,Placebo,2015-02-07,Y,2,2015-07-31,175,2015-12-06,303,Swelling in the brain,Edema cerebral,Nervous system disorders,N,N,MILD,NOT RELATED,"RESOLVED, RECOVERED",2
05-017,5,Site 05,40,M,White,Placebo,2015-02-07,Y,3,2015-09-24,230,2015-10-27,263,"Potentially life-threatening condition during a drug infusion which may cause low blood pressure, rash, fever, chills, difficulty breathing, rapid heartbeat, nausea, and kidney damage",Cytokine release syndrome,Immune system disorders,N,N,MODERATE,NOT RELATED,RESOLVED WITHOUT SEQUELAE,3
05-017,5,Site 05,40,M,White,Placebo,2015-02-07,Y,4,2016-01-19,347,2016-02-05,364,"Loss of muscle coordination; awkward, uncoordinated walking unsteadiness when walking",Ataxia,Nervous system disorders,N,N,MODERATE,UNLIKELY RELATED,RESOLVED WITH SEQUELAE,4
05-018,5,Site 05,40,M,Hispanic,Placebo,2015-07-04,Y,1,2016-06-12,345,2016-06-27,360,"Formation of a blood clot that plugs the blood vessel; blood clots may break loose and travel to another place, such as the lung",Thromboembolic event,Vascular disorders,N,Y,MILD,DEFINITELY RELATED,RESOLVED WITHOUT SEQUELAE,1
05-019,5,Site 05,36,F,White,Treatment A,2015-12-14,Y,1,2016-04-07,116,2016-05-08,147,Face pain,Facial pain,General disorders and administration sit conditions,N,Y,MODERATE,NOT RELATED,"RESOLVED, RECOVERED",1
05-020,5,Site 05,42,F,Black,Placebo,2015-05-14,Y,1,2015-10-02,142,2015-11-03,174,Problem of the retina (a multi-layered sensory tissue that lines th back of the eye responsible for sight),Retinopathy,Eye disorders,N,N,MILD,NOT RELATED,"RESOLVED, RECOVERED",1
05-020,5,Site 05,42,F,Black,Placebo,2015-05-14,Y,2,2015-10-21,161,2015-11-17,188,Non-cancerous overgrowth of new bone on the surface of a bone,Exostosis,Musculoskeletal and connective tissu disorders,N,N,MILD,UNLIKELY RELATED,RESOLVED WITH SEQUELAE,2
05-020,5,Site 05,42,F,Black,Placebo,2015-05-14,Y,3,2015-12-17,218,2016-05-01,354,Stiffness in the heart preventing the heart chambers to properly fil with blood,Restrictive cardiomyopathy,Cardiac disorders,N,N,MODERATE,POSSIBLY RELATED,"RESOLVED, RECOVERED",3
05-020,5,Site 05,42,F,Black,Placebo,2015-05-14,Y,4,2016-01-19,251,2016-03-30,322,bleeding in the anal region,Anal hemorrhage,Gastrointestinal disorders,N,Y,MILD,DEFINITELY RELATED,RECOVERED,4
05-020,5,Site 05,42,F,Black,Placebo,2015-05-14,Y,5,2016-02-03,266,2016-03-28,320,Damage to the breast tissue during surgery,Intraoperative breast injury,"Injury, poisoning and procedura complications",N,N,MILD,UNLIKELY RELATED,"RESOLVED, RECOVERED",5
05-021,5,Site 05,32,M,Other/Mixed,Treatment A,2015-04-21,Y,1,2015-08-04,106,2015-08-12,114,Accumulation of fat under the skin,Lipohypertrophy,Skin and subcutaneous tissue disorders,N,N,MODERATE,NOT RELATED,RECOVERED,1
05-021,5,Site 05,32,M,Other/Mixed,Treatment A,2015-04-21,Y,2,2015-08-28,130,2016-01-21,276,Decreased number of a type of blood cell that helps to clot bloo (platelet),Platelet count decreased,Investigations,N,N,MODERATE,NOT RELATED,"RESOLVED, RECOVERED",2
05-022,5,Site 05,24,M,Hispanic,Treatment B,2015-04-15,Y,1,2015-07-11,88,2016-04-01,353,Abnormally low level of parathyroid glands hormon,Hypoparathyroidism,Endocrine disorders,N,Y,MILD,PROBABLY RELATED,"RESOLVED, RECOVERED",1
05-022,5,Site 05,24,M,Hispanic,Treatment B,2015-04-15,Y,2,2015-07-24,101,2015-08-29,137,Major change in thinking patterns,Cognitive disturbance,Nervous system disorders,N,Y,MILD,POSSIBLY RELATED,RECOVERED,2
05-022,5,Site 05,24,M,Hispanic,Treatment B,2015-04-15,Y,3,2015-12-28,258,2016-01-31,292,Infection of the lining of the abdominal cavit,Peritoneal infection,Infections and infestations,N,N,MILD,UNLIKELY RELATED,RESOLVED WITH SEQUELAE,3
05-023,5,Site 05,29,F,Black,Placebo,2015-01-11,Y,,,,,,,,,,,,,,
05-024,5,Site 05,48,M,Hispanic,Placebo,2015-04-16,Y,1,2015-07-07,83,2015-08-17,124,Partial or complete blockage of the small and/or large bowel.  Ileu is a functional rather than actual blockage of the bowel.,Ileus,Gastrointestinal disorders,N,N,MILD,POSSIBLY RELATED,RECOVERED,1
05-024,5,Site 05,48,M,Hispanic,Placebo,2015-04-16,Y,2,2016-03-08,328,2016-04-11,362,Joint stiffness,Joint range of motion decreased,Musculoskeletal and connective tissu disorders,N,Y,MODERATE,NOT RELATED,RECOVERED,2
05-024,5,Site 05,48,M,Hispanic,Placebo,2015-04-16,Y,3,2016-03-17,337,2016-04-05,356,Death of liver tissue,Hepatic necrosis,Hepatobiliary disorders,N,Y,MILD,UNLIKELY RELATED,RESOLVED WITHOUT SEQUELAE,3
05-025,5,Site 05,50,M,White,Treatment A,2015-08-10,Y,1,2015-09-02,24,2016-04-10,245,"Infection of the upper respiratory tract (nose, sinuses, throat, win pipe, and voice box)",Upper respiratory infection,Infections and infestations,N,Y,MILD,POSSIBLY RELATED,"RESOLVED, RECOVERED",1
05-025,5,Site 05,50,M,White,Treatment A,2015-08-10,Y,2,2015-11-20,103,2016-04-19,254,Inflammation (swelling and redness) of the voice box (larynx) that i usually associated with hoarseness or loss of voice,Laryngitis,Infections and infestations,Y,N,MILD,PROBABLY RELATED,RECOVERED,2
05-025,5,Site 05,50,M,White,Treatment A,2015-08-10,Y,3,2015-11-28,111,2016-07-25,351,Irritation or sores in the lining of the rectum,Rectal mucositis,Gastrointestinal disorders,N,Y,MILD,NOT RELATED,RECOVERED,3
05-025,5,Site 05,50,M,White,Treatment A,2015-08-10,Y,4,2016-01-05,149,2016-04-19,254,Abnormal hole between the vagina and another organ or tissue,Vaginal fistula,Reproductive system and breast disorders,N,N,MILD,DEFINITELY RELATED,RESOLVED WITHOUT SEQUELAE,4
05-025,5,Site 05,50,M,White,Treatment A,2015-08-10,Y,5,2016-04-11,246,2016-07-18,344,Death of infant within 28 days of birth,Death neonatal,General disorders and administration sit conditions,N,N,MODERATE,NOT RELATED,RECOVERED,5
05-026,5,Site 05,41,M,Hispanic,Placebo,2015-11-10,Y,1,2016-04-27,170,2016-07-05,239,Neck pain,Neck pain,Musculoskeletal and connective tissu disorders,N,Y,MODERATE,UNLIKELY RELATED,RECOVERED,1
05-027,5,Site 05,32,M,Black,Placebo,2015-01-26,Y,1,2015-06-01,127,2015-12-13,322,Abnormally low level of parathyroid glands hormon,Hypoparathyroidism,Endocrine disorders,N,Y,MODERATE,UNLIKELY RELATED,"RESOLVED, RECOVERED",1
05-027,5,Site 05,32,M,Black,Placebo,2015-01-26,Y,2,2015-08-24,211,2015-10-08,256,Blockage of Fallopian tube (tube between ovary to uterus [womb]),Fallopian tube obstruction,Reproductive system and breast disorders,N,N,MODERATE,NOT RELATED,RECOVERED,2
05-027,5,Site 05,32,M,Black,Placebo,2015-01-26,Y,3,2015-10-15,263,2016-01-06,346,"Collection of heart rhythm signs/symptoms that include: Sinu bradycardia (a slow heartbeat, Tachycardias (a fast heartbeat), Bradycardia-tachycardia (an alternating slow and fast heart rhythms)",Sick sinus syndrome,Cardiac disorders,N,N,MILD,UNLIKELY RELATED,RECOVERED,3
05-028,5,Site 05,54,M,White,Treatment A,2015-03-01,Y,1,2015-06-09,101,2016-02-22,359,Increased blood level of enzyme (creatine phosphokinase) fro muscle,CPK increased,Investigations,N,N,MILD,POSSIBLY RELATED,RESOLVED WITH SEQUELAE,1
05-028,5,Site 05,54,M,White,Treatment A,2015-03-01,Y,2,2015-11-03,248,2016-02-11,348,"Imflammation (swelling and redness) and/or necrosis (death o tissue) of the appendix. cecum, and/or ileum (both areas of the large bowel)",Typhlitis,Gastrointestinal disorders,N,N,MODERATE,NOT RELATED,RESOLVED WITHOUT SEQUELAE,2
05-028,5,Site 05,54,M,White,Treatment A,2015-03-01,Y,3,2016-01-12,318,2016-02-25,362,Pain in the gums,Gingival pain,Gastrointestinal disorders,N,Y,MILD,DEFINITELY RELATED,RESOLVED WITHOUT SEQUELAE,3
05-029,5,Site 05,42,M,Other/Mixed,Treatment A,2015-12-02,Y,1,2016-03-03,93,2016-05-18,169,Abnormality of the spleen,Spleen disorder,Blood and lymphatic system disorders,N,N,MODERATE,DEFINITELY RELATED,RECOVERED,1
05-029,5,Site 05,42,M,Other/Mixed,Treatment A,2015-12-02,Y,2,2016-03-13,103,2016-09-20,294,Blockage of or in the voice box,Laryngeal obstruction,"Respiratory, thoracic and mediastina disorders",Y,Y,MILD,NOT RELATED,"RESOLVED, RECOVERED",2
05-030,5,Site 05,35,M,White,Placebo,2015-10-02,Y,1,2016-02-07,129,2016-02-16,138,Infection of skeletal muscles,Infective myositis,Infections and infestations,N,N,MILD,PROBABLY RELATED,"RESOLVED, RECOVERED",1
05-030,5,Site 05,35,M,White,Placebo,2015-10-02,Y,2,2016-02-23,145,2016-03-02,153,Death of soft tissue of the arms,Soft tissue necrosis upper limb,Musculoskeletal and connective tissu disorders,N,Y,MILD,NOT RELATED,"RESOLVED, RECOVERED",2
05-030,5,Site 05,35,M,White,Placebo,2015-10-02,Y,3,2016-05-03,215,2016-05-18,230,Abnormal function of the aortic valve (one of the four valves in th heart),Aortic valve disease,Cardiac disorders,N,N,MILD,DEFINITELY RELATED,RECOVERED,3
