,USUBJID,STUDYID,DOMAIN,SITEID,SITEGRP,SUBJID,VISIT1DT,RANDDT,TRTSTDT,RFSTDTC,LSTDOSDT,ENDDT,RFENDTC,VISNUMEN,DISCONT,DSDECOD,DSREASAE,DSREASCD,DEATH,TRTDUR,TRTP,TRTPCD,TRTPN,TRTDOSE,AVGDD,CUMDOSE,ARM,ARMCD,ARMN,AGE,AGEGRP,AGEGRPN,AGEU,RACE,RACEN,SEX,BMIBL,BMIBLGRP,DISONSET,DURDIS,DURDISGR,EDUCLVL,HEIGHTBL,MMSETOT,WEIGHTBL,SAFETY,ITT,EFFICACY,COMPLT24,COMPLT16,COMPLT8
0,01-701-1015,CDISCPILOT01,ADSL,701,701,1015,19718.0,19725.0,19725.0,2014-01-02,19906.0,19906.0,2014-07-02,12.0,,PROTOCOL COMPLETED,,Completed,,182.0,Placebo,Pbo,5.397605346934028e-79,5.397605346934028e-79,5.397605346934028e-79,5.397605346934028e-79,Placebo,Pbo,5.397605346934028e-79,63.0,<65,1.0,YEARS,"HISPANIC (MEXICAN - AMERICAN, MEXICO, CENTRAL AND SOUTH AMERICA)",5.0,F,25.100000000000005,25-<30,18382.0,43.9,>=12,16.0,147.3,23.0,54.4,Y,Y,Y,Y,Y,Y
1,01-701-1023,CDISCPILOT01,ADSL,701,701,1023,19196.0,19210.0,19210.0,2012-08-05,19237.0,19238.0,2012-09-02,5.0,Y,ADVERSE EVENT,Y,Adverse Event,,28.0,Placebo,Pbo,5.397605346934028e-79,5.397605346934028e-79,5.397605346934028e-79,5.397605346934028e-79,Placebo,Pbo,5.397605346934028e-79,64.0,<65,1.0,YEARS,"HISPANIC (MEXICAN - AMERICAN, MEXICO, CENTRAL AND SOUTH AMERICA)",5.0,M,30.4,>=30,16871.0,76.4,>=12,14.0,162.6,23.0,80.3,Y,Y,Y,N,N,N
2,01-701-1028,CDISCPILOT01,ADSL,701,701,1028,19550.0,19558.0,19558.0,2013-07-19,19737.0,19737.0,2014-01-14,12.0,,PROTOCOL COMPLETED,,Completed,,180.0,Xanomeline High Dose,Xan_Hi,2.0,81.0,77.7,13986.0,Xanomeline High Dose,Xan_Hi,2.0,71.0,65-80,2.0,YEARS,CAUCASIAN,1.0,M,31.4,>=30,18247.0,42.8,>=12,16.0,177.8,23.0,99.3,Y,Y,Y,Y,Y,Y
3,01-701-1033,CDISCPILOT01,ADSL,701,701,1033,19792.0,19800.0,19800.0,2014-03-18,19813.0,19827.0,2014-04-14,5.0,Y,SPONSOR DECISION (STUDY OR PATIENT DISCONTINUED BY THE SPONSOR),,Sponsor Decision,,14.0,Xanomeline Low Dose,Xan_Lo,1.0,54.0,54.0,756.0,Xanomeline Low Dose,Xan_Lo,1.0,74.0,65-80,2.0,YEARS,CAUCASIAN,1.0,M,28.8,25-<30,18111.0,55.3,>=12,12.0,175.3,23.0,88.5,Y,Y,Y,N,N,N
4,01-701-1034,CDISCPILOT01,ADSL,701,701,1034,19898.0,19905.0,19905.0,2014-07-01,20087.0,20087.0,2014-12-30,12.0,,PROTOCOL COMPLETED,,Completed,,183.0,Xanomeline High Dose,Xan_Hi,2.0,81.0,76.9,14067.0,Xanomeline High Dose,Xan_Hi,2.0,77.0,65-80,2.0,YEARS,CAUCASIAN,1.0,F,26.100000000000005,25-<30,18899.0,32.9,>=12,9.0,154.9,21.0,62.6,Y,Y,Y,Y,Y,Y
5,01-701-1047,CDISCPILOT01,ADSL,701,701,1047,19380.0,19401.0,19401.0,2013-02-12,19426.0,19446.0,2013-03-29,6.0,Y,ADVERSE EVENT,Y,Adverse Event,,26.0,Placebo,Pbo,5.397605346934028e-79,5.397605346934028e-79,5.397605346934028e-79,5.397605346934028e-79,Placebo,Pbo,5.397605346934028e-79,85.0,>80,3.0,YEARS,CAUCASIAN,1.0,F,30.4,>=30,18104.0,42.0,>=12,8.0,148.6,23.0,67.1,Y,Y,Y,N,N,N
6,01-701-1097,CDISCPILOT01,ADSL,701,701,1097,19715.0,19724.0,19724.0,2014-01-01,19913.0,19913.0,2014-07-09,12.0,,PROTOCOL COMPLETED,,Completed,,190.0,Xanomeline Low Dose,Xan_Lo,1.0,54.0,54.0,10260.0,Xanomeline Low Dose,Xan_Lo,1.0,68.0,65-80,2.0,YEARS,CAUCASIAN,1.0,M,27.3,25-<30,16701.0,99.1,>=12,18.0,168.9,10.0,78.0,Y,Y,Y,Y,Y,Y
7,01-701-1111,CDISCPILOT01,ADSL,701,701,1111,19230.0,19243.0,19243.0,2012-09-07,19252.0,19253.0,2012-09-17,4.0,Y,ADVERSE EVENT,Y,Adverse Event,,10.0,Xanomeline Low Dose,Xan_Lo,1.0,54.0,54.0,540.0,Xanomeline Low Dose,Xan_Lo,1.0,81.0,>80,3.0,YEARS,CAUCASIAN,1.0,F,23.9,<25,17991.0,40.7,>=12,22.0,158.2,23.0,59.9,Y,Y,Y,N,N,N
8,01-701-1115,CDISCPILOT01,ADSL,701,701,1115,19320.0,19327.0,19327.0,2012-11-30,19381.0,19381.0,2013-01-23,8.0,Y,ADVERSE EVENT,Y,Adverse Event,,55.0,Xanomeline Low Dose,Xan_Lo,1.0,54.0,54.0,2970.0,Xanomeline Low Dose,Xan_Lo,1.0,84.0,>80,3.0,YEARS,CAUCASIAN,1.0,M,23.9,<25,16219.0,101.9,>=12,12.0,181.6,20.0,78.9,Y,Y,Y,N,N,Y
9,01-701-1118,CDISCPILOT01,ADSL,701,701,1118,19781.0,19794.0,19794.0,2014-03-12,19975.0,19975.0,2014-09-09,12.0,,PROTOCOL COMPLETED,,Completed,,182.0,Placebo,Pbo,5.397605346934028e-79,5.397605346934028e-79,5.397605346934028e-79,5.397605346934028e-79,Placebo,Pbo,5.397605346934028e-79,52.0,<65,1.0,YEARS,CAUCASIAN,1.0,M,21.9,<25,18437.0,44.2,>=12,14.0,180.3,20.0,71.2,Y,Y,Y,Y,Y,Y
10,01-701-1130,CDISCPILOT01,ADSL,701,701,1130,19763.0,19769.0,19769.0,2014-02-15,19951.0,19951.0,2014-08-16,12.0,,PROTOCOL COMPLETED,,Completed,,183.0,Placebo,Pbo,5.397605346934028e-79,5.397605346934028e-79,5.397605346934028e-79,5.397605346934028e-79,Placebo,Pbo,5.397605346934028e-79,84.0,>80,3.0,YEARS,CAUCASIAN,1.0,M,27.600000000000005,25-<30,18404.0,44.7,>=12,12.0,169.7,19.0,79.4,Y,Y,Y,Y,Y,Y
11,01-701-1133,CDISCPILOT01,ADSL,701,701,1133,19289.0,19294.0,19294.0,2012-10-28,19476.0,19477.0,2013-04-29,12.0,,PROTOCOL COMPLETED,,Completed,,183.0,Xanomeline High Dose,Xan_Hi,2.0,81.0,77.2,14121.0,Xanomeline High Dose,Xan_Hi,2.0,81.0,>80,3.0,YEARS,CAUCASIAN,1.0,F,28.100000000000005,25-<30,18332.0,31.5,>=12,10.0,162.6,21.0,74.4,Y,Y,Y,Y,Y,Y
12,01-701-1146,CDISCPILOT01,ADSL,701,701,1146,19485.0,19498.0,19498.0,2013-05-20,19535.0,19539.0,2013-06-30,7.0,Y,ADVERSE EVENT,Y,Adverse Event,,38.0,Xanomeline High Dose,Xan_Hi,2.0,81.0,70.3,2673.0,Xanomeline High Dose,Xan_Hi,2.0,75.0,65-80,2.0,YEARS,CAUCASIAN,1.0,F,24.9,<25,18218.0,41.7,>=12,16.0,147.3,22.0,54.0,Y,Y,Y,N,N,N
13,01-701-1148,CDISCPILOT01,ADSL,701,701,1148,19584.0,19593.0,19593.0,2013-08-23,19774.0,19774.0,2014-02-20,12.0,,PROTOCOL COMPLETED,,Completed,,182.0,Xanomeline High Dose,Xan_Hi,2.0,81.0,77.1,14040.0,Xanomeline High Dose,Xan_Hi,2.0,57.0,<65,1.0,YEARS,CAUCASIAN,1.0,M,28.3,25-<30,18608.0,32.1,>=12,15.0,175.3,21.0,87.1,Y,Y,Y,Y,Y,Y
14,01-701-1153,CDISCPILOT01,ADSL,701,701,1153,19607.0,19624.0,19624.0,2013-09-23,19798.0,19814.0,2014-04-01,12.0,,PROTOCOL COMPLETED,,Completed,,175.0,Placebo,Pbo,5.397605346934028e-79,5.397605346934028e-79,5.397605346934028e-79,5.397605346934028e-79,Placebo,Pbo,5.397605346934028e-79,79.0,65-80,2.0,YEARS,CAUCASIAN,1.0,F,23.8,<25,16569.0,99.8,>=12,6.0,156.2,10.0,58.1,Y,Y,Y,Y,Y,Y
15,01-701-1180,CDISCPILOT01,ADSL,701,701,1180,19386.0,19401.0,19401.0,2013-02-12,19435.0,19440.0,2013-03-23,7.0,Y,ADVERSE EVENT,Y,Adverse Event,,35.0,Xanomeline High Dose,Xan_Hi,2.0,81.0,70.2,2457.0,Xanomeline High Dose,Xan_Hi,2.0,56.0,<65,1.0,YEARS,CAUCASIAN,1.0,M,27.600000000000005,25-<30,17796.0,52.3,>=12,16.0,180.3,19.0,89.8,Y,Y,Y,N,N,N
16,01-701-1181,CDISCPILOT01,ADSL,701,701,1181,19688.0,19697.0,19697.0,2013-12-05,19701.0,19704.0,2013-12-12,4.0,Y,ADVERSE EVENT,Y,Adverse Event,,5.0,Xanomeline High Dose,Xan_Hi,2.0,81.0,54.0,270.0,Xanomeline High Dose,Xan_Hi,2.0,79.0,65-80,2.0,YEARS,CAUCASIAN,1.0,F,27.8,25-<30,17770.0,63.0,>=12,15.0,154.9,10.0,66.7,Y,Y,Y,N,N,N
17,01-701-1188,CDISCPILOT01,ADSL,701,701,1188,19392.0,19404.0,19404.0,2013-02-15,19441.0,19442.0,2013-03-25,7.0,Y,ADVERSE EVENT,Y,Adverse Event,,38.0,Xanomeline Low Dose,Xan_Lo,1.0,54.0,54.0,2052.0,Xanomeline Low Dose,Xan_Lo,1.0,71.0,65-80,2.0,YEARS,CAUCASIAN,1.0,M,32.0,>=30,16693.0,88.7,>=12,16.0,177.8,23.0,101.2,Y,Y,Y,N,N,N
18,01-701-1192,CDISCPILOT01,ADSL,701,701,1192,19182.0,19196.0,19196.0,2012-07-22,19378.0,19378.0,2013-01-20,12.0,,PROTOCOL COMPLETED,,Completed,,183.0,Xanomeline Low Dose,Xan_Lo,1.0,54.0,54.0,9882.0,Xanomeline Low Dose,Xan_Lo,1.0,80.0,65-80,2.0,YEARS,CAUCASIAN,1.0,F,27.8,25-<30,17971.0,39.8,>=12,12.0,151.1,23.0,63.5,Y,Y,Y,Y,Y,Y
19,01-701-1203,CDISCPILOT01,ADSL,701,701,1203,19383.0,19391.0,19391.0,2013-02-02,19573.0,19573.0,2013-08-03,12.0,,PROTOCOL COMPLETED,,Completed,,183.0,Placebo,Pbo,5.397605346934028e-79,5.397605346934028e-79,5.397605346934028e-79,5.397605346934028e-79,Placebo,Pbo,5.397605346934028e-79,81.0,>80,3.0,YEARS,"AFRICAN DESCENT (NEGRO, BLACK)",2.0,F,25.9,25-<30,18736.0,21.3,>=12,13.0,160.0,21.0,66.2,Y,Y,Y,Y,Y,Y
20,01-701-1211,CDISCPILOT01,ADSL,701,701,1211,19296.0,19312.0,19312.0,2012-11-15,19370.0,19372.0,2013-01-14,9.0,Y,DEATH,,Death,Y,59.0,Xanomeline Low Dose,Xan_Lo,1.0,54.0,54.0,3186.0,Xanomeline Low Dose,Xan_Lo,1.0,76.0,65-80,2.0,YEARS,CAUCASIAN,1.0,F,17.7,<25,18340.0,31.4,>=12,12.0,160.0,12.0,45.4,Y,Y,Y,N,N,Y
21,01-701-1234,CDISCPILOT01,ADSL,701,701,1234,19437.0,19447.0,19447.0,2013-03-30,19623.0,19623.0,2013-09-22,12.0,,PROTOCOL COMPLETED,,Completed,,177.0,Placebo,Pbo,5.397605346934028e-79,5.397605346934028e-79,5.397605346934028e-79,5.397605346934028e-79,Placebo,Pbo,5.397605346934028e-79,69.0,65-80,2.0,YEARS,CAUCASIAN,1.0,M,23.4,<25,17024.0,79.3,>=12,18.0,181.6,20.0,77.1,Y,Y,Y,Y,Y,Y
22,01-701-1239,CDISCPILOT01,ADSL,701,701,1239,19720.0,19734.0,19734.0,2014-01-11,19914.0,19915.0,2014-07-11,12.0,,PROTOCOL COMPLETED,,Completed,,181.0,Xanomeline High Dose,Xan_Hi,2.0,81.0,76.8,13905.0,Xanomeline High Dose,Xan_Hi,2.0,56.0,<65,1.0,YEARS,"HISPANIC (MEXICAN - AMERICAN, MEXICO, CENTRAL AND SOUTH AMERICA)",5.0,M,33.6,>=30,15971.0,123.2,>=12,11.0,168.9,23.0,95.9,Y,Y,Y,Y,Y,Y
23,01-701-1275,CDISCPILOT01,ADSL,701,701,1275,19748.0,19761.0,19761.0,2014-02-07,19874.0,19888.0,2014-06-14,10.0,Y,PERSONAL CONFLICT OR OTHER PATIENT/CAREGIVER DECISION,,Withdrew Consent,,114.0,Xanomeline High Dose,Xan_Hi,2.0,81.0,77.2,8802.0,Xanomeline High Dose,Xan_Hi,2.0,61.0,<65,1.0,YEARS,"OTHER (MIXED - RACIAL HERITAGE, AMERICAN INDIAN, ESKIMO)",6.0,M,24.600000000000005,<25,18887.0,28.3,>=12,12.0,167.6,22.0,69.0,Y,Y,Y,N,Y,Y
24,01-701-1287,CDISCPILOT01,ADSL,701,701,1287,19740.0,19748.0,19748.0,2014-01-25,19930.0,19930.0,2014-07-26,12.0,,PROTOCOL COMPLETED,,Completed,,183.0,Xanomeline High Dose,Xan_Hi,2.0,81.0,76.3,13959.0,Xanomeline High Dose,Xan_Hi,2.0,56.0,<65,1.0,YEARS,"HISPANIC (MEXICAN - AMERICAN, MEXICO, CENTRAL AND SOUTH AMERICA)",5.0,F,23.5,<25,18200.0,50.6,>=12,14.0,154.9,22.0,56.3,Y,Y,Y,Y,Y,Y
25,01-701-1294,CDISCPILOT01,ADSL,701,701,1294,19434.0,19441.0,19441.0,2013-03-24,19523.0,19523.0,2013-06-14,9.0,Y,ADVERSE EVENT,Y,Adverse Event,,83.0,Xanomeline Low Dose,Xan_Lo,1.0,54.0,54.0,4482.0,Xanomeline Low Dose,Xan_Lo,1.0,67.0,65-80,2.0,YEARS,CAUCASIAN,1.0,M,27.100000000000005,25-<30,18879.0,18.3,>=12,16.0,170.2,23.0,78.5,Y,Y,Y,N,N,Y
26,01-701-1302,CDISCPILOT01,ADSL,701,701,1302,19590.0,19599.0,19599.0,2013-08-29,19667.0,19667.0,2013-11-05,9.0,Y,ADVERSE EVENT,Y,Adverse Event,,69.0,Xanomeline High Dose,Xan_Hi,2.0,81.0,74.0,5103.0,Xanomeline High Dose,Xan_Hi,2.0,61.0,<65,1.0,YEARS,CAUCASIAN,1.0,M,26.0,25-<30,17206.0,78.4,>=12,15.0,177.8,23.0,82.1,Y,Y,Y,N,N,Y
27,01-701-1317,CDISCPILOT01,ADSL,701,701,1317,19853.0,19865.0,19865.0,2014-05-22,20047.0,20047.0,2014-11-20,12.0,,PROTOCOL COMPLETED,,Completed,,183.0,Xanomeline Low Dose,Xan_Lo,1.0,54.0,54.0,9882.0,Xanomeline Low Dose,Xan_Lo,1.0,68.0,65-80,2.0,YEARS,CAUCASIAN,1.0,M,21.4,<25,19617.0,7.8,<12,20.0,176.5,20.0,66.7,Y,Y,Y,Y,Y,Y
28,01-701-1324,CDISCPILOT01,ADSL,701,701,1324,19252.0,19268.0,19268.0,2012-10-02,19450.0,19450.0,2013-04-02,12.0,,PROTOCOL COMPLETED,,Completed,,183.0,Xanomeline Low Dose,Xan_Lo,1.0,54.0,54.0,9882.0,Xanomeline Low Dose,Xan_Lo,1.0,79.0,65-80,2.0,YEARS,CAUCASIAN,1.0,M,27.8,25-<30,18181.0,35.2,>=12,18.0,166.4,23.0,77.1,Y,Y,Y,Y,Y,Y
29,01-701-1341,CDISCPILOT01,ADSL,701,701,1341,19349.0,19363.0,19363.0,2013-01-05,19384.0,19396.0,2013-02-07,5.0,Y,ADVERSE EVENT,Y,Adverse Event,,22.0,Xanomeline Low Dose,Xan_Lo,1.0,54.0,54.0,1188.0,Xanomeline Low Dose,Xan_Lo,1.0,51.0,<65,1.0,YEARS,CAUCASIAN,1.0,M,28.5,25-<30,16957.0,78.6,>=12,24.0,157.5,23.0,70.8,Y,Y,Y,N,N,N
30,01-701-1345,CDISCPILOT01,ADSL,701,701,1345,19632.0,19639.0,19639.0,2013-10-08,19800.0,19800.0,2014-03-18,12.0,Y,SPONSOR DECISION (STUDY OR PATIENT DISCONTINUED BY THE SPONSOR),,Sponsor Decision,,162.0,Placebo,Pbo,5.397605346934028e-79,5.397605346934028e-79,5.397605346934028e-79,5.397605346934028e-79,Placebo,Pbo,5.397605346934028e-79,63.0,<65,1.0,YEARS,CAUCASIAN,1.0,F,18.600000000000005,<25,18571.0,34.9,>=12,15.0,174.0,23.0,56.3,Y,Y,Y,Y,Y,Y
31,01-701-1360,CDISCPILOT01,ADSL,701,701,1360,19563.0,19570.0,19570.0,2013-07-31,19575.0,19584.0,2013-08-14,4.0,Y,PHYSICIAN DECISION,,Physician Decision,,6.0,Xanomeline High Dose,Xan_Hi,2.0,81.0,54.0,324.0,Xanomeline High Dose,Xan_Hi,2.0,67.0,65-80,2.0,YEARS,CAUCASIAN,1.0,M,29.0,25-<30,17868.0,55.7,>=12,10.0,166.4,23.0,80.3,Y,Y,Y,N,N,N
32,01-701-1363,CDISCPILOT01,ADSL,701,701,1363,19498.0,19508.0,19508.0,2013-05-30,19689.0,19689.0,2013-11-27,12.0,,PROTOCOL COMPLETED,,Completed,,182.0,Placebo,Pbo,5.397605346934028e-79,5.397605346934028e-79,5.397605346934028e-79,5.397605346934028e-79,Placebo,Pbo,5.397605346934028e-79,81.0,>80,3.0,YEARS,"AFRICAN DESCENT (NEGRO, BLACK)",2.0,F,24.9,<25,16729.0,91.0,>=12,13.0,161.3,22.0,64.9,Y,Y,Y,Y,Y,Y
33,01-701-1383,CDISCPILOT01,ADSL,701,701,1383,19380.0,19393.0,19393.0,2013-02-04,19576.0,19576.0,2013-08-06,12.0,,PROTOCOL COMPLETED,,Completed,,184.0,Xanomeline High Dose,Xan_Hi,2.0,81.0,77.6,14283.0,Xanomeline High Dose,Xan_Hi,2.0,72.0,65-80,2.0,YEARS,CAUCASIAN,1.0,F,31.600000000000005,>=30,17033.0,77.1,>=12,12.0,163.8,22.0,84.8,Y,Y,Y,Y,Y,Y
34,01-701-1387,CDISCPILOT01,ADSL,701,701,1387,19777.0,19794.0,19794.0,2014-03-12,19807.0,19807.0,2014-03-25,4.0,Y,PROTOCOL VIOLATION,,Protocol Violation,,14.0,Placebo,Pbo,5.397605346934028e-79,5.397605346934028e-79,5.397605346934028e-79,5.397605346934028e-79,Placebo,Pbo,5.397605346934028e-79,87.0,>80,3.0,YEARS,CAUCASIAN,1.0,F,22.5,<25,15934.0,126.3,>=12,12.0,162.6,11.0,59.4,Y,Y,Y,N,N,N
35,01-701-1392,CDISCPILOT01,ADSL,701,701,1392,19283.0,19294.0,19294.0,2012-10-28,19476.0,19476.0,2013-04-28,12.0,,PROTOCOL COMPLETED,,Completed,,183.0,Placebo,Pbo,5.397605346934028e-79,5.397605346934028e-79,5.397605346934028e-79,5.397605346934028e-79,Placebo,Pbo,5.397605346934028e-79,78.0,65-80,2.0,YEARS,CAUCASIAN,1.0,M,28.9,25-<30,18377.0,29.8,>=12,16.0,167.6,23.0,81.2,Y,Y,Y,Y,Y,Y
36,01-701-1415,CDISCPILOT01,ADSL,701,701,1415,19616.0,19624.0,19624.0,2013-09-23,19806.0,19806.0,2014-03-24,12.0,,PROTOCOL COMPLETED,,Completed,,183.0,Placebo,Pbo,5.397605346934028e-79,5.397605346934028e-79,5.397605346934028e-79,5.397605346934028e-79,Placebo,Pbo,5.397605346934028e-79,85.0,>80,3.0,YEARS,CAUCASIAN,1.0,M,25.0,25-<30,14043.0,183.1,>=12,10.0,175.3,18.0,76.7,Y,Y,Y,Y,Y,Y
37,01-701-1429,CDISCPILOT01,ADSL,701,701,1429,19414.0,19436.0,19436.0,2013-03-19,19478.0,19478.0,2013-04-30,7.0,Y,PERSONAL CONFLICT OR OTHER PATIENT/CAREGIVER DECISION,,Withdrew Consent,,43.0,Xanomeline Low Dose,Xan_Lo,1.0,54.0,54.0,2322.0,Xanomeline Low Dose,Xan_Lo,1.0,84.0,>80,3.0,YEARS,CAUCASIAN,1.0,F,25.7,25-<30,17700.0,56.3,>=12,12.0,148.6,17.0,56.7,Y,Y,Y,N,N,N
38,01-701-1440,CDISCPILOT01,ADSL,701,701,1440,19563.0,19578.0,19578.0,2013-08-08,19759.0,19759.0,2014-02-05,12.0,,PROTOCOL COMPLETED,,Completed,,182.0,Placebo,Pbo,5.397605346934028e-79,5.397605346934028e-79,5.397605346934028e-79,5.397605346934028e-79,Placebo,Pbo,5.397605346934028e-79,70.0,65-80,2.0,YEARS,CAUCASIAN,1.0,M,20.2,<25,18724.0,27.600000000000005,>=12,18.0,156.2,22.0,49.4,Y,Y,Y,Y,Y,Y
39,01-701-1442,CDISCPILOT01,ADSL,701,701,1442,19648.0,19657.0,19657.0,2013-10-26,19839.0,19839.0,2014-04-26,12.0,,PROTOCOL COMPLETED,,Completed,,183.0,Xanomeline Low Dose,Xan_Lo,1.0,54.0,54.0,9882.0,Xanomeline Low Dose,Xan_Lo,1.0,57.0,<65,1.0,YEARS,"AFRICAN DESCENT (NEGRO, BLACK)",2.0,F,40.1,>=30,16852.0,91.9,>=12,12.0,162.6,15.0,106.1,Y,Y,Y,Y,Y,Y
40,01-701-1444,CDISCPILOT01,ADSL,701,701,1444,19358.0,19363.0,19363.0,2013-01-05,19401.0,19402.0,2013-02-13,7.0,Y,ADVERSE EVENT,Y,Adverse Event,,39.0,Xanomeline High Dose,Xan_Hi,2.0,81.0,71.3,2781.0,Xanomeline High Dose,Xan_Hi,2.0,63.0,<65,1.0,YEARS,"HISPANIC (MEXICAN - AMERICAN, MEXICO, CENTRAL AND SOUTH AMERICA)",5.0,M,34.5,>=30,17673.0,55.4,>=12,14.0,171.5,23.0,101.6,Y,Y,Y,N,N,N
41,01-702-1082,CDISCPILOT01,ADSL,702,900,1082,19542.0,19565.0,19565.0,2013-07-26,19644.0,19679.0,2013-11-17,9.0,Y,PERSONAL CONFLICT OR OTHER PATIENT/CAREGIVER DECISION,,Withdrew Consent,,80.0,Xanomeline Low Dose,Xan_Lo,1.0,54.0,54.0,4320.0,Xanomeline Low Dose,Xan_Lo,1.0,84.0,>80,3.0,YEARS,CAUCASIAN,1.0,F,,<25,17303.0,73.6,>=12,18.0,154.9,23.0,,Y,Y,Y,N,N,Y
42,01-703-1042,CDISCPILOT01,ADSL,703,703,1042,19412.0,19419.0,19419.0,2013-03-02,19601.0,19601.0,2013-08-31,12.0,,PROTOCOL COMPLETED,,Completed,,183.0,Placebo,Pbo,5.397605346934028e-79,5.397605346934028e-79,5.397605346934028e-79,5.397605346934028e-79,Placebo,Pbo,5.397605346934028e-79,64.0,<65,1.0,YEARS,CAUCASIAN,1.0,M,23.5,<25,17736.0,55.1,>=12,12.0,177.8,23.0,74.4,Y,Y,Y,Y,Y,Y
43,01-703-1076,CDISCPILOT01,ADSL,703,703,1076,19648.0,19656.0,19656.0,2013-10-25,19716.0,19716.0,2013-12-24,9.0,Y,ADVERSE EVENT,Y,Adverse Event,,61.0,Xanomeline High Dose,Xan_Hi,2.0,81.0,75.2,4590.0,Xanomeline High Dose,Xan_Hi,2.0,69.0,65-80,2.0,YEARS,CAUCASIAN,1.0,M,32.0,>=30,19232.0,13.7,>=12,10.0,165.1,23.0,87.1,Y,Y,Y,N,N,Y
44,01-703-1086,CDISCPILOT01,ADSL,703,703,1086,19227.0,19238.0,19238.0,2012-09-02,19331.0,19351.0,2012-12-24,10.0,Y,ADVERSE EVENT,Y,Adverse Event,,94.0,Xanomeline Low Dose,Xan_Lo,1.0,54.0,54.0,5076.0,Xanomeline Low Dose,Xan_Lo,1.0,71.0,65-80,2.0,YEARS,CAUCASIAN,1.0,M,25.0,25-<30,18744.0,15.9,>=12,17.0,195.6,17.0,95.7,Y,Y,Y,N,Y,Y
45,01-703-1096,CDISCPILOT01,ADSL,703,703,1096,19346.0,19383.0,19383.0,2013-01-25,19433.0,19446.0,2013-03-29,7.0,Y,UNABLE TO CONTACT PATIENT (LOST TO FOLLOW-UP),,Lost to Follow-up,,51.0,Placebo,Pbo,5.397605346934028e-79,5.397605346934028e-79,5.397605346934028e-79,5.397605346934028e-79,Placebo,Pbo,5.397605346934028e-79,81.0,>80,3.0,YEARS,CAUCASIAN,1.0,F,31.7,>=30,17155.0,72.0,>=12,6.0,160.0,22.0,81.2,Y,Y,N,N,N,N
46,01-703-1100,CDISCPILOT01,ADSL,703,703,1100,19417.0,19430.0,19430.0,2013-03-13,19615.0,19615.0,2013-09-14,12.0,,PROTOCOL COMPLETED,,Completed,,186.0,Placebo,Pbo,5.397605346934028e-79,5.397605346934028e-79,5.397605346934028e-79,5.397605346934028e-79,Placebo,Pbo,5.397605346934028e-79,84.0,>80,3.0,YEARS,CAUCASIAN,1.0,F,21.8,<25,18598.0,26.9,>=12,8.0,167.6,22.0,61.2,Y,Y,Y,Y,Y,Y
47,01-703-1119,CDISCPILOT01,ADSL,703,703,1119,19391.0,19409.0,19409.0,2013-02-20,19522.0,19522.0,2013-06-13,10.0,Y,ADVERSE EVENT,Y,Adverse Event,,114.0,Xanomeline Low Dose,Xan_Lo,1.0,54.0,54.0,6156.0,Xanomeline Low Dose,Xan_Lo,1.0,81.0,>80,3.0,YEARS,CAUCASIAN,1.0,F,18.4,<25,16468.0,96.1,>=12,16.0,160.0,14.0,47.2,Y,Y,Y,N,Y,Y
48,01-703-1175,CDISCPILOT01,ADSL,703,703,1175,19705.0,19712.0,19712.0,2013-12-20,19718.0,19723.0,2013-12-31,4.0,Y,PROTOCOL ENTRY CRITERIA NOT MET,,I/E Not Met,,7.0,Placebo,Pbo,5.397605346934028e-79,5.397605346934028e-79,5.397605346934028e-79,5.397605346934028e-79,Placebo,Pbo,5.397605346934028e-79,75.0,65-80,2.0,YEARS,CAUCASIAN,1.0,M,26.600000000000005,25-<30,18524.0,38.8,>=12,16.0,170.2,11.0,77.1,Y,Y,Y,N,N,N
49,01-703-1182,CDISCPILOT01,ADSL,703,703,1182,19639.0,19648.0,19648.0,2013-10-17,19703.0,19704.0,2013-12-12,8.0,Y,ADVERSE EVENT,Y,Adverse Event,,56.0,Xanomeline Low Dose,Xan_Lo,1.0,54.0,54.0,3024.0,Xanomeline Low Dose,Xan_Lo,1.0,84.0,>80,3.0,YEARS,CAUCASIAN,1.0,M,22.8,<25,18897.0,24.4,>=12,12.0,172.7,22.0,68.0,Y,Y,Y,N,N,Y
50,01-703-1197,CDISCPILOT01,ADSL,703,703,1197,19510.0,19525.0,19525.0,2013-06-16,19538.0,19561.0,2013-07-22,4.0,Y,PERSONAL CONFLICT OR OTHER PATIENT/CAREGIVER DECISION,,Withdrew Consent,,14.0,Xanomeline Low Dose,Xan_Lo,1.0,54.0,54.0,756.0,Xanomeline Low Dose,Xan_Lo,1.0,76.0,65-80,2.0,YEARS,"AFRICAN DESCENT (NEGRO, BLACK)",2.0,F,38.6,>=30,19003.0,16.7,>=12,5.0,162.6,12.0,102.1,Y,Y,Y,N,N,N
51,01-703-1210,CDISCPILOT01,ADSL,703,703,1210,19425.0,19433.0,19433.0,2013-03-16,19607.0,19607.0,2013-09-06,12.0,,PROTOCOL COMPLETED,,Completed,,175.0,Placebo,Pbo,5.397605346934028e-79,5.397605346934028e-79,5.397605346934028e-79,5.397605346934028e-79,Placebo,Pbo,5.397605346934028e-79,72.0,65-80,2.0,YEARS,CAUCASIAN,1.0,F,23.8,<25,18311.0,36.6,>=12,12.0,144.8,19.0,49.9,Y,Y,Y,Y,Y,Y
52,01-703-1258,CDISCPILOT01,ADSL,703,703,1258,19184.0,19194.0,19194.0,2012-07-20,19369.0,19379.0,2013-01-21,12.0,Y,ADVERSE EVENT,Y,Adverse Event,,176.0,Xanomeline High Dose,Xan_Hi,2.0,81.0,77.3,13608.0,Xanomeline High Dose,Xan_Hi,2.0,78.0,65-80,2.0,YEARS,CAUCASIAN,1.0,F,24.8,<25,16849.0,76.7,>=12,12.0,154.9,13.0,59.4,Y,Y,Y,Y,Y,Y
53,01-703-1279,CDISCPILOT01,ADSL,703,703,1279,19475.0,19491.0,19491.0,2013-05-13,19512.0,19531.0,2013-06-22,4.0,Y,PERSONAL CONFLICT OR OTHER PATIENT/CAREGIVER DECISION,,Withdrew Consent,,22.0,Xanomeline Low Dose,Xan_Lo,1.0,54.0,54.0,1188.0,Xanomeline Low Dose,Xan_Lo,1.0,72.0,65-80,2.0,YEARS,CAUCASIAN,1.0,F,21.100000000000005,<25,18472.0,33.0,>=12,12.0,162.6,14.0,55.8,Y,Y,N,N,N,N
54,01-703-1295,CDISCPILOT01,ADSL,703,703,1295,19655.0,19683.0,19683.0,2013-11-21,19832.0,19862.0,2014-05-19,11.0,Y,PERSONAL CONFLICT OR OTHER PATIENT/CAREGIVER DECISION,,Withdrew Consent,,150.0,Xanomeline High Dose,Xan_Hi,2.0,81.0,78.3,11745.0,Xanomeline High Dose,Xan_Hi,2.0,88.0,>80,3.0,YEARS,CAUCASIAN,1.0,F,22.7,<25,19088.0,18.7,>=12,8.0,157.5,20.0,56.3,Y,Y,Y,N,Y,Y
55,01-703-1299,CDISCPILOT01,ADSL,703,703,1299,19243.0,19248.0,19248.0,2012-09-12,19430.0,19430.0,2013-03-13,12.0,,PROTOCOL COMPLETED,,Completed,,183.0,Placebo,Pbo,5.397605346934028e-79,5.397605346934028e-79,5.397605346934028e-79,5.397605346934028e-79,Placebo,Pbo,5.397605346934028e-79,81.0,>80,3.0,YEARS,CAUCASIAN,1.0,F,19.2,<25,18886.0,11.8,<12,12.0,153.7,23.0,45.4,Y,Y,Y,Y,Y,Y
56,01-703-1335,CDISCPILOT01,ADSL,703,703,1335,19782.0,19799.0,19799.0,2014-03-17,19850.0,19867.0,2014-05-24,7.0,Y,PROTOCOL VIOLATION,,Protocol Violation,,52.0,Xanomeline High Dose,Xan_Hi,2.0,81.0,73.2,3807.0,Xanomeline High Dose,Xan_Hi,2.0,67.0,65-80,2.0,YEARS,"AFRICAN DESCENT (NEGRO, BLACK)",2.0,F,23.0,<25,17561.0,73.0,>=12,11.0,154.9,10.0,55.3,Y,Y,Y,N,N,N
57,01-703-1379,CDISCPILOT01,ADSL,703,703,1379,19613.0,19623.0,19623.0,2013-09-22,19803.0,19803.0,2014-03-21,12.0,,PROTOCOL COMPLETED,,Completed,,181.0,Xanomeline Low Dose,Xan_Lo,1.0,54.0,54.0,9774.0,Xanomeline Low Dose,Xan_Lo,1.0,81.0,>80,3.0,YEARS,"AFRICAN DESCENT (NEGRO, BLACK)",2.0,F,30.7,>=30,18161.0,47.7,>=12,7.0,157.5,12.0,76.2,Y,Y,Y,Y,Y,Y
58,01-703-1403,CDISCPILOT01,ADSL,703,703,1403,19332.0,19339.0,19339.0,2012-12-12,19340.0,19346.0,2012-12-19,4.0,Y,ADVERSE EVENT,Y,Adverse Event,,2.0,Xanomeline High Dose,Xan_Hi,2.0,81.0,54.0,108.0,Xanomeline High Dose,Xan_Hi,2.0,67.0,65-80,2.0,YEARS,CAUCASIAN,1.0,M,25.4,25-<30,18603.0,24.0,>=12,12.0,177.8,23.0,80.3,Y,Y,N,N,N,N
59,01-703-1439,CDISCPILOT01,ADSL,703,703,1439,19786.0,19794.0,19794.0,2014-03-12,19977.0,19977.0,2014-09-11,12.0,,PROTOCOL COMPLETED,,Completed,,184.0,Xanomeline High Dose,Xan_Hi,2.0,81.0,76.7,14121.0,Xanomeline High Dose,Xan_Hi,2.0,76.0,65-80,2.0,YEARS,CAUCASIAN,1.0,F,24.8,<25,18472.0,43.2,>=12,12.0,160.0,16.0,63.5,Y,Y,Y,Y,Y,Y
60,01-704-1008,CDISCPILOT01,ADSL,704,704,1008,19364.0,19371.0,19371.0,2013-01-13,19410.0,19414.0,2013-02-25,7.0,Y,ADVERSE EVENT,Y,Adverse Event,,40.0,Xanomeline High Dose,Xan_Hi,2.0,81.0,70.2,2808.0,Xanomeline High Dose,Xan_Hi,2.0,76.0,65-80,2.0,YEARS,CAUCASIAN,1.0,F,21.3,<25,18917.0,14.7,>=12,12.0,148.0,21.0,46.7,Y,Y,Y,N,N,N
61,01-704-1009,CDISCPILOT01,ADSL,704,704,1009,19590.0,19597.0,19597.0,2013-08-27,19626.0,19633.0,2013-10-02,5.0,Y,PERSONAL CONFLICT OR OTHER PATIENT/CAREGIVER DECISION,,Withdrew Consent,,30.0,Xanomeline Low Dose,Xan_Lo,1.0,54.0,54.0,1620.0,Xanomeline Low Dose,Xan_Lo,1.0,83.0,>80,3.0,YEARS,CAUCASIAN,1.0,M,20.8,<25,17931.0,54.5,>=12,16.0,179.1,21.0,66.7,Y,Y,Y,N,N,N
62,01-704-1010,CDISCPILOT01,ADSL,704,704,1010,19762.0,19775.0,19775.0,2014-02-21,19912.0,19913.0,2014-07-09,11.0,Y,PERSONAL CONFLICT OR OTHER PATIENT/CAREGIVER DECISION,,Withdrew Consent,,138.0,Placebo,Pbo,5.397605346934028e-79,5.397605346934028e-79,5.397605346934028e-79,5.397605346934028e-79,Placebo,Pbo,5.397605346934028e-79,80.0,65-80,2.0,YEARS,CAUCASIAN,1.0,M,25.600000000000005,25-<30,16803.0,97.2,>=12,14.0,177.8,17.0,81.0,Y,Y,Y,N,Y,Y
63,01-704-1017,CDISCPILOT01,ADSL,704,704,1017,19621.0,19637.0,19637.0,2013-10-06,19680.0,19686.0,2013-11-24,7.0,Y,ADVERSE EVENT,Y,Adverse Event,,44.0,Xanomeline High Dose,Xan_Hi,2.0,81.0,72.4,3186.0,Xanomeline High Dose,Xan_Hi,2.0,77.0,65-80,2.0,YEARS,CAUCASIAN,1.0,M,21.8,<25,18713.0,29.9,>=12,12.0,170.2,21.0,63.1,Y,Y,Y,N,N,N
64,01-704-1025,CDISCPILOT01,ADSL,704,704,1025,19619.0,19628.0,19628.0,2013-09-27,19655.0,19691.0,2013-11-29,6.0,Y,ADVERSE EVENT,Y,Adverse Event,,28.0,Xanomeline Low Dose,Xan_Lo,1.0,54.0,54.0,1512.0,Xanomeline Low Dose,Xan_Lo,1.0,81.0,>80,3.0,YEARS,CAUCASIAN,1.0,F,20.100000000000005,<25,19055.0,18.600000000000005,>=12,18.0,166.0,17.0,55.5,Y,Y,Y,N,N,N
65,01-704-1065,CDISCPILOT01,ADSL,704,704,1065,19648.0,19655.0,19655.0,2013-10-24,19714.0,19716.0,2013-12-24,9.0,Y,ADVERSE EVENT,Y,Adverse Event,,60.0,Xanomeline High Dose,Xan_Hi,2.0,81.0,74.3,4455.0,Xanomeline High Dose,Xan_Hi,2.0,75.0,65-80,2.0,YEARS,CAUCASIAN,1.0,M,24.8,<25,18344.0,42.9,>=12,12.0,180.3,20.0,80.7,Y,Y,Y,N,N,Y
66,01-704-1074,CDISCPILOT01,ADSL,704,704,1074,19742.0,19745.0,19745.0,2014-01-22,19802.0,19813.0,2014-03-31,8.0,Y,ADVERSE EVENT,Y,Adverse Event,,58.0,Xanomeline High Dose,Xan_Hi,2.0,81.0,72.2,4185.0,Xanomeline High Dose,Xan_Hi,2.0,80.0,65-80,2.0,YEARS,CAUCASIAN,1.0,F,27.0,25-<30,17927.0,59.7,>=12,16.0,167.6,17.0,75.8,Y,Y,Y,N,N,Y
67,01-704-1093,CDISCPILOT01,ADSL,704,704,1093,19411.0,19432.0,19432.0,2013-03-15,19526.0,19529.0,2013-06-20,10.0,Y,ADVERSE EVENT,Y,Adverse Event,,95.0,Xanomeline High Dose,Xan_Hi,2.0,81.0,76.5,7263.0,Xanomeline High Dose,Xan_Hi,2.0,79.0,65-80,2.0,YEARS,CAUCASIAN,1.0,M,24.3,<25,18460.0,31.3,>=12,12.0,174.0,18.0,73.5,Y,Y,Y,N,Y,Y
68,01-704-1114,CDISCPILOT01,ADSL,704,704,1114,19367.0,19381.0,19381.0,2013-01-23,19546.0,19547.0,2013-07-08,12.0,Y,PERSONAL CONFLICT OR OTHER PATIENT/CAREGIVER DECISION,,Withdrew Consent,,166.0,Xanomeline Low Dose,Xan_Lo,1.0,54.0,54.0,8964.0,Xanomeline Low Dose,Xan_Lo,1.0,77.0,65-80,2.0,YEARS,CAUCASIAN,1.0,M,28.100000000000005,25-<30,17250.0,69.6,>=12,8.0,166.4,20.0,77.8,Y,Y,Y,Y,Y,Y
69,01-704-1120,CDISCPILOT01,ADSL,704,704,1120,19680.0,19694.0,19694.0,2013-12-02,19755.0,19757.0,2014-02-03,9.0,Y,ADVERSE EVENT,Y,Adverse Event,,62.0,Xanomeline Low Dose,Xan_Lo,1.0,54.0,54.0,3348.0,Xanomeline Low Dose,Xan_Lo,1.0,71.0,65-80,2.0,YEARS,CAUCASIAN,1.0,F,23.9,<25,17248.0,79.9,>=12,13.0,147.0,16.0,51.7,Y,Y,Y,N,N,Y
70,01-704-1127,CDISCPILOT01,ADSL,704,704,1127,19617.0,19633.0,19633.0,2013-10-02,19813.0,19813.0,2014-03-31,12.0,,PROTOCOL COMPLETED,,Completed,,181.0,Placebo,Pbo,5.397605346934028e-79,5.397605346934028e-79,5.397605346934028e-79,5.397605346934028e-79,Placebo,Pbo,5.397605346934028e-79,84.0,>80,3.0,YEARS,CAUCASIAN,1.0,F,15.1,<25,17786.0,60.2,>=12,12.0,165.1,22.0,41.1,Y,Y,Y,Y,Y,Y
71,01-704-1135,CDISCPILOT01,ADSL,704,704,1135,19654.0,19662.0,19662.0,2013-10-31,19859.0,19859.0,2014-05-16,12.0,,PROTOCOL COMPLETED,,Completed,,198.0,Xanomeline Low Dose,Xan_Lo,1.0,54.0,54.0,10692.0,Xanomeline Low Dose,Xan_Lo,1.0,74.0,65-80,2.0,YEARS,CAUCASIAN,1.0,F,24.600000000000005,<25,18541.0,36.6,>=12,14.0,161.8,23.0,64.4,Y,Y,Y,Y,Y,Y
72,01-704-1164,CDISCPILOT01,ADSL,704,704,1164,19247.0,19255.0,19255.0,2012-09-19,19452.0,19452.0,2013-04-04,12.0,,PROTOCOL COMPLETED,,Completed,,198.0,Placebo,Pbo,5.397605346934028e-79,5.397605346934028e-79,5.397605346934028e-79,5.397605346934028e-79,Placebo,Pbo,5.397605346934028e-79,67.0,65-80,2.0,YEARS,CAUCASIAN,1.0,F,20.100000000000005,<25,18690.0,18.3,>=12,10.0,157.5,16.0,49.9,Y,Y,Y,Y,Y,Y
73,01-704-1218,CDISCPILOT01,ADSL,704,704,1218,19308.0,19316.0,19316.0,2012-11-19,19505.0,19505.0,2013-05-27,12.0,,PROTOCOL COMPLETED,,Completed,,190.0,Xanomeline Low Dose,Xan_Lo,1.0,54.0,54.0,10260.0,Xanomeline Low Dose,Xan_Lo,1.0,81.0,>80,3.0,YEARS,CAUCASIAN,1.0,F,26.2,25-<30,18489.0,26.9,>=12,12.0,144.0,22.0,54.4,Y,Y,Y,Y,Y,Y
74,01-704-1233,CDISCPILOT01,ADSL,704,704,1233,19425.0,19438.0,19438.0,2013-03-21,19553.0,19553.0,2013-07-14,11.0,Y,PERSONAL CONFLICT OR OTHER PATIENT/CAREGIVER DECISION,,Withdrew Consent,,116.0,Placebo,Pbo,5.397605346934028e-79,5.397605346934028e-79,5.397605346934028e-79,5.397605346934028e-79,Placebo,Pbo,5.397605346934028e-79,87.0,>80,3.0,YEARS,CAUCASIAN,1.0,F,21.3,<25,18642.0,25.8,>=12,16.0,147.3,15.0,46.3,Y,Y,Y,N,Y,Y
75,01-704-1241,CDISCPILOT01,ADSL,704,704,1241,19584.0,19595.0,19595.0,2013-08-25,19640.0,19662.0,2013-10-31,8.0,Y,ADVERSE EVENT,Y,Adverse Event,,46.0,Xanomeline High Dose,Xan_Hi,2.0,81.0,74.0,3402.0,Xanomeline High Dose,Xan_Hi,2.0,86.0,>80,3.0,YEARS,CAUCASIAN,1.0,M,25.2,25-<30,18833.0,24.7,>=12,14.0,170.2,21.0,73.0,Y,Y,Y,N,N,Y
76,01-704-1260,CDISCPILOT01,ADSL,704,704,1260,19228.0,19235.0,19235.0,2012-08-30,19301.0,19376.0,2013-01-18,9.0,Y,PERSONAL CONFLICT OR OTHER PATIENT/CAREGIVER DECISION,,Withdrew Consent,,67.0,Placebo,Pbo,5.397605346934028e-79,5.397605346934028e-79,5.397605346934028e-79,5.397605346934028e-79,Placebo,Pbo,5.397605346934028e-79,71.0,65-80,2.0,YEARS,CAUCASIAN,1.0,F,19.100000000000005,<25,15673.0,116.8,>=12,16.0,160.0,16.0,48.8,Y,Y,Y,N,N,Y
77,01-704-1266,CDISCPILOT01,ADSL,704,704,1266,19636.0,19644.0,19644.0,2013-10-13,19698.0,19698.0,2013-12-06,8.0,Y,ADVERSE EVENT,Y,Adverse Event,,55.0,Xanomeline High Dose,Xan_Hi,2.0,81.0,73.6,4050.0,Xanomeline High Dose,Xan_Hi,2.0,82.0,>80,3.0,YEARS,CAUCASIAN,1.0,M,29.2,25-<30,18963.0,22.100000000000005,>=12,12.0,174.0,16.0,88.5,Y,Y,Y,N,N,Y
78,01-704-1323,CDISCPILOT01,ADSL,704,704,1323,19522.0,19547.0,19547.0,2013-07-08,19575.0,19578.0,2013-08-08,7.0,Y,ADVERSE EVENT,Y,Adverse Event,,29.0,Xanomeline Low Dose,Xan_Lo,1.0,54.0,54.0,1566.0,Xanomeline Low Dose,Xan_Lo,1.0,68.0,65-80,2.0,YEARS,CAUCASIAN,1.0,F,22.7,<25,18344.0,38.7,>=12,16.0,162.6,23.0,59.9,Y,Y,N,N,N,N
79,01-704-1325,CDISCPILOT01,ADSL,704,704,1325,19829.0,19836.0,19836.0,2014-04-23,19908.0,19941.0,2014-08-06,10.0,Y,PROTOCOL VIOLATION,,Protocol Violation,,73.0,Xanomeline Low Dose,Xan_Lo,1.0,54.0,54.0,3942.0,Xanomeline Low Dose,Xan_Lo,1.0,81.0,>80,3.0,YEARS,CAUCASIAN,1.0,M,22.3,<25,17838.0,65.4,>=12,16.0,175.3,18.0,68.5,Y,Y,Y,N,Y,Y
80,01-704-1332,CDISCPILOT01,ADSL,704,704,1332,19686.0,19701.0,19701.0,2013-12-09,19768.0,19770.0,2014-02-16,9.0,Y,ADVERSE EVENT,Y,Adverse Event,,68.0,Xanomeline High Dose,Xan_Hi,2.0,81.0,75.0,5103.0,Xanomeline High Dose,Xan_Hi,2.0,80.0,65-80,2.0,YEARS,CAUCASIAN,1.0,M,26.2,25-<30,18940.0,24.5,>=12,9.0,173.0,22.0,78.5,Y,Y,Y,N,N,Y
81,01-704-1351,CDISCPILOT01,ADSL,704,704,1351,19627.0,19643.0,19643.0,2013-10-12,19831.0,19831.0,2014-04-18,12.0,,PROTOCOL COMPLETED,,Completed,,189.0,Placebo,Pbo,5.397605346934028e-79,5.397605346934028e-79,5.397605346934028e-79,5.397605346934028e-79,Placebo,Pbo,5.397605346934028e-79,70.0,65-80,2.0,YEARS,CAUCASIAN,1.0,M,23.9,<25,19246.0,12.6,>=12,12.0,175.3,22.0,73.5,Y,Y,Y,Y,Y,Y
82,01-704-1388,CDISCPILOT01,ADSL,704,704,1388,19325.0,19334.0,19334.0,2012-12-07,19520.0,19528.0,2013-06-19,12.0,,PROTOCOL COMPLETED,,Completed,,187.0,Placebo,Pbo,5.397605346934028e-79,5.397605346934028e-79,5.397605346934028e-79,5.397605346934028e-79,Placebo,Pbo,5.397605346934028e-79,81.0,>80,3.0,YEARS,CAUCASIAN,1.0,M,18.8,<25,18561.0,25.100000000000005,>=12,11.0,176.5,20.0,58.5,Y,Y,Y,Y,Y,Y
83,01-704-1435,CDISCPILOT01,ADSL,704,704,1435,19298.0,19314.0,19314.0,2012-11-17,19367.0,19370.0,2013-01-12,8.0,Y,PERSONAL CONFLICT OR OTHER PATIENT/CAREGIVER DECISION,,Withdrew Consent,,54.0,Placebo,Pbo,5.397605346934028e-79,5.397605346934028e-79,5.397605346934028e-79,5.397605346934028e-79,Placebo,Pbo,5.397605346934028e-79,74.0,65-80,2.0,YEARS,CAUCASIAN,1.0,M,27.100000000000005,25-<30,18282.0,33.4,>=12,16.0,167.6,20.0,76.2,Y,Y,Y,N,N,Y
84,01-704-1445,CDISCPILOT01,ADSL,704,704,1445,19844.0,19854.0,19854.0,2014-05-11,20028.0,20028.0,2014-11-01,12.0,Y,DEATH,,Death,Y,175.0,Placebo,Pbo,5.397605346934028e-79,5.397605346934028e-79,5.397605346934028e-79,5.397605346934028e-79,Placebo,Pbo,5.397605346934028e-79,75.0,65-80,2.0,YEARS,CAUCASIAN,1.0,M,22.8,<25,19308.0,17.600000000000005,>=12,12.0,177.8,23.0,72.1,Y,Y,Y,Y,Y,Y
85,01-705-1018,CDISCPILOT01,ADSL,705,705,1018,19539.0,19544.0,19544.0,2013-07-05,19551.0,19551.0,2013-07-12,4.0,Y,PERSONAL CONFLICT OR OTHER PATIENT/CAREGIVER DECISION,,Withdrew Consent,,8.0,Placebo,Pbo,5.397605346934028e-79,5.397605346934028e-79,5.397605346934028e-79,5.397605346934028e-79,Placebo,Pbo,5.397605346934028e-79,69.0,65-80,2.0,YEARS,CAUCASIAN,1.0,F,22.600000000000005,<25,18222.0,43.3,>=12,6.0,147.3,18.0,49.0,Y,Y,N,N,N,N
86,01-705-1031,CDISCPILOT01,ADSL,705,705,1031,19679.0,19689.0,19689.0,2013-11-27,19854.0,19854.0,2014-05-11,12.0,Y,UNABLE TO CONTACT PATIENT (LOST TO FOLLOW-UP),,Lost to Follow-up,,166.0,Xanomeline Low Dose,Xan_Lo,1.0,54.0,54.0,8964.0,Xanomeline Low Dose,Xan_Lo,1.0,56.0,<65,1.0,YEARS,"HISPANIC (MEXICAN - AMERICAN, MEXICO, CENTRAL AND SOUTH AMERICA)",5.0,F,28.9,25-<30,18591.0,35.8,>=12,16.0,157.5,23.0,71.7,Y,Y,Y,Y,Y,Y
87,01-705-1059,CDISCPILOT01,ADSL,705,705,1059,19572.0,19575.0,19575.0,2013-08-05,19697.0,19697.0,2013-12-05,10.0,Y,ADVERSE EVENT,Y,Adverse Event,,123.0,Placebo,Pbo,5.397605346934028e-79,5.397605346934028e-79,5.397605346934028e-79,5.397605346934028e-79,Placebo,Pbo,5.397605346934028e-79,66.0,65-80,2.0,YEARS,CAUCASIAN,1.0,F,20.4,<25,18098.0,48.5,>=12,12.0,162.6,16.0,54.0,Y,Y,Y,N,Y,Y
88,01-705-1186,CDISCPILOT01,ADSL,705,705,1186,19726.0,19731.0,19731.0,2014-01-08,19749.0,19761.0,2014-02-07,5.0,Y,PHYSICIAN DECISION,,Physician Decision,,19.0,Placebo,Pbo,5.397605346934028e-79,5.397605346934028e-79,5.397605346934028e-79,5.397605346934028e-79,Placebo,Pbo,5.397605346934028e-79,84.0,>80,3.0,YEARS,CAUCASIAN,1.0,F,19.7,<25,18811.0,30.100000000000005,>=12,12.0,142.2,15.0,39.9,Y,Y,N,N,N,N
89,01-705-1199,CDISCPILOT01,ADSL,705,705,1199,19612.0,19617.0,19617.0,2013-09-16,19629.0,19630.0,2013-09-29,4.0,Y,ADVERSE EVENT,Y,Adverse Event,,13.0,Xanomeline Low Dose,Xan_Lo,1.0,54.0,54.0,702.0,Xanomeline Low Dose,Xan_Lo,1.0,87.0,>80,3.0,YEARS,CAUCASIAN,1.0,M,24.8,<25,17417.0,72.1,>=12,20.0,161.3,19.0,64.4,Y,Y,Y,N,N,N
90,01-705-1280,CDISCPILOT01,ADSL,705,705,1280,19734.0,19740.0,19740.0,2014-01-17,19929.0,19929.0,2014-07-25,12.0,,PROTOCOL COMPLETED,,Completed,,190.0,Xanomeline High Dose,Xan_Hi,2.0,81.0,76.9,14607.0,Xanomeline High Dose,Xan_Hi,2.0,56.0,<65,1.0,YEARS,CAUCASIAN,1.0,F,28.0,25-<30,19362.0,12.3,>=12,12.0,157.5,23.0,69.4,Y,Y,Y,Y,Y,Y
91,01-705-1281,CDISCPILOT01,ADSL,705,705,1281,19688.0,19690.0,19690.0,2013-11-28,19781.0,19799.0,2014-03-17,10.0,Y,ADVERSE EVENT,Y,Adverse Event,,92.0,Xanomeline High Dose,Xan_Hi,2.0,81.0,75.7,6966.0,Xanomeline High Dose,Xan_Hi,2.0,73.0,65-80,2.0,YEARS,"AFRICAN DESCENT (NEGRO, BLACK)",2.0,F,31.4,>=30,19302.0,12.7,>=12,12.0,152.4,23.0,73.0,Y,Y,Y,N,Y,Y
92,01-705-1282,CDISCPILOT01,ADSL,705,705,1282,19350.0,19353.0,19353.0,2012-12-26,19533.0,19533.0,2013-06-24,12.0,,PROTOCOL COMPLETED,,Completed,,181.0,Placebo,Pbo,5.397605346934028e-79,5.397605346934028e-79,5.397605346934028e-79,5.397605346934028e-79,Placebo,Pbo,5.397605346934028e-79,70.0,65-80,2.0,YEARS,"AFRICAN DESCENT (NEGRO, BLACK)",2.0,F,30.4,>=30,17141.0,72.6,>=12,12.0,154.9,10.0,73.0,Y,Y,Y,Y,Y,Y
93,01-705-1292,CDISCPILOT01,ADSL,705,705,1292,19642.0,19645.0,19645.0,2013-10-14,19856.0,19857.0,2014-05-14,12.0,,PROTOCOL COMPLETED,,Completed,,212.0,Xanomeline Low Dose,Xan_Lo,1.0,54.0,54.0,11448.0,Xanomeline Low Dose,Xan_Lo,1.0,60.0,<65,1.0,YEARS,"AFRICAN DESCENT (NEGRO, BLACK)",2.0,F,26.8,25-<30,19264.0,12.5,>=12,8.0,167.6,23.0,75.3,Y,Y,Y,Y,Y,Y
94,01-705-1303,CDISCPILOT01,ADSL,705,705,1303,19702.0,19708.0,19708.0,2013-12-16,19876.0,19876.0,2014-06-02,11.0,Y,ADVERSE EVENT,Y,Adverse Event,,169.0,Xanomeline High Dose,Xan_Hi,2.0,81.0,78.6,13284.0,Xanomeline High Dose,Xan_Hi,2.0,72.0,65-80,2.0,YEARS,CAUCASIAN,1.0,M,27.5,25-<30,18611.0,35.9,>=12,12.0,175.3,19.0,84.4,Y,Y,Y,N,Y,Y
95,01-705-1310,CDISCPILOT01,ADSL,705,705,1310,19657.0,19664.0,19664.0,2013-11-02,19746.0,19746.0,2014-01-23,9.0,Y,ADVERSE EVENT,Y,Adverse Event,,83.0,Xanomeline High Dose,Xan_Hi,2.0,81.0,74.2,6156.0,Xanomeline High Dose,Xan_Hi,2.0,74.0,65-80,2.0,YEARS,CAUCASIAN,1.0,F,22.7,<25,18930.0,23.9,>=12,12.0,146.1,20.0,48.5,Y,Y,Y,N,N,Y
96,01-705-1349,CDISCPILOT01,ADSL,705,705,1349,19413.0,19427.0,19427.0,2013-03-10,19609.0,19609.0,2013-09-08,12.0,,PROTOCOL COMPLETED,,Completed,,183.0,Placebo,Pbo,5.397605346934028e-79,5.397605346934028e-79,5.397605346934028e-79,5.397605346934028e-79,Placebo,Pbo,5.397605346934028e-79,86.0,>80,3.0,YEARS,"HISPANIC (MEXICAN - AMERICAN, MEXICO, CENTRAL AND SOUTH AMERICA)",5.0,F,21.2,<25,17248.0,71.2,>=12,10.0,144.8,15.0,44.5,Y,Y,Y,Y,Y,Y
97,01-705-1377,CDISCPILOT01,ADSL,705,705,1377,19721.0,19727.0,19727.0,2014-01-04,19789.0,19789.0,2014-03-07,7.0,Y,PERSONAL CONFLICT OR OTHER PATIENT/CAREGIVER DECISION,,Withdrew Consent,,63.0,Xanomeline High Dose,Xan_Hi,2.0,81.0,71.6,4509.0,Xanomeline High Dose,Xan_Hi,2.0,63.0,<65,1.0,YEARS,"AFRICAN DESCENT (NEGRO, BLACK)",2.0,F,21.0,<25,18997.0,23.8,>=12,6.0,165.1,14.0,57.2,Y,Y,N,N,N,N
98,01-705-1382,CDISCPILOT01,ADSL,705,705,1382,19487.0,19491.0,19491.0,2013-05-13,19491.0,19491.0,2013-05-13,4.0,Y,PROTOCOL ENTRY CRITERIA NOT MET,,I/E Not Met,,1.0,Xanomeline High Dose,Xan_Hi,2.0,81.0,54.0,54.0,Xanomeline High Dose,Xan_Hi,2.0,82.0,>80,3.0,YEARS,CAUCASIAN,1.0,M,33.2,>=30,19116.0,12.2,>=12,12.0,170.2,19.0,96.2,Y,Y,N,N,N,N
99,01-705-1393,CDISCPILOT01,ADSL,705,705,1393,19238.0,19243.0,19243.0,2012-09-07,19390.0,19409.0,2013-02-20,11.0,Y,ADVERSE EVENT,Y,Adverse Event,,148.0,Xanomeline Low Dose,Xan_Lo,1.0,54.0,54.0,7992.0,Xanomeline Low Dose,Xan_Lo,1.0,84.0,>80,3.0,YEARS,CAUCASIAN,1.0,F,26.9,25-<30,16322.0,95.8,>=12,13.0,144.8,19.0,56.3,Y,Y,Y,N,Y,Y
100,01-705-1431,CDISCPILOT01,ADSL,705,705,1431,19525.0,19532.0,19532.0,2013-06-23,19711.0,19711.0,2013-12-19,12.0,,PROTOCOL COMPLETED,,Completed,,180.0,Xanomeline Low Dose,Xan_Lo,1.0,54.0,54.0,9720.0,Xanomeline Low Dose,Xan_Lo,1.0,68.0,65-80,2.0,YEARS,"HISPANIC (MEXICAN - AMERICAN, MEXICO, CENTRAL AND SOUTH AMERICA)",5.0,F,24.2,<25,18447.0,35.4,>=12,12.0,149.9,21.0,54.4,Y,Y,Y,Y,Y,Y
101,01-706-1041,CDISCPILOT01,ADSL,706,900,1041,19713.0,19723.0,19723.0,2013-12-31,19932.0,19933.0,2014-07-29,12.0,,PROTOCOL COMPLETED,,Completed,,210.0,Placebo,Pbo,5.397605346934028e-79,5.397605346934028e-79,5.397605346934028e-79,5.397605346934028e-79,Placebo,Pbo,5.397605346934028e-79,64.0,<65,1.0,YEARS,"AFRICAN DESCENT (NEGRO, BLACK)",2.0,F,20.9,<25,18949.0,25.100000000000005,>=12,15.0,167.6,20.0,58.7,Y,Y,Y,Y,Y,Y
102,01-706-1049,CDISCPILOT01,ADSL,706,900,1049,19478.0,19492.0,19492.0,2013-05-14,19527.0,19534.0,2013-06-25,7.0,Y,ADVERSE EVENT,Y,Adverse Event,,36.0,Xanomeline High Dose,Xan_Hi,2.0,81.0,69.8,2511.0,Xanomeline High Dose,Xan_Hi,2.0,60.0,<65,1.0,YEARS,CAUCASIAN,1.0,F,20.600000000000005,<25,18384.0,36.0,>=12,11.0,167.6,16.0,57.8,Y,Y,Y,N,N,N
103,01-706-1384,CDISCPILOT01,ADSL,706,900,1384,19230.0,19251.0,19251.0,2012-09-15,19260.0,19265.0,2012-09-29,4.0,Y,ADVERSE EVENT,Y,Adverse Event,,10.0,Xanomeline Low Dose,Xan_Lo,1.0,54.0,54.0,540.0,Xanomeline Low Dose,Xan_Lo,1.0,74.0,65-80,2.0,YEARS,CAUCASIAN,1.0,F,30.600000000000005,>=30,17656.0,51.7,>=12,8.0,157.5,20.0,76.0,Y,Y,Y,N,N,N
104,01-707-1037,CDISCPILOT01,ADSL,707,900,1037,19704.0,19712.0,19712.0,2013-12-20,19716.0,19731.0,2014-01-08,4.0,Y,PERSONAL CONFLICT OR OTHER PATIENT/CAREGIVER DECISION,,Withdrew Consent,,5.0,Xanomeline Low Dose,Xan_Lo,1.0,54.0,54.0,270.0,Xanomeline Low Dose,Xan_Lo,1.0,72.0,65-80,2.0,YEARS,CAUCASIAN,1.0,F,23.8,<25,17899.0,59.3,>=12,14.0,152.4,24.0,55.3,Y,Y,Y,N,N,N
105,01-707-1206,CDISCPILOT01,ADSL,707,900,1206,19651.0,19659.0,19659.0,2013-10-28,19839.0,19840.0,2014-04-27,12.0,,PROTOCOL COMPLETED,,Completed,,181.0,Placebo,Pbo,5.397605346934028e-79,5.397605346934028e-79,5.397605346934028e-79,5.397605346934028e-79,Placebo,Pbo,5.397605346934028e-79,65.0,65-80,2.0,YEARS,CAUCASIAN,1.0,M,24.600000000000005,<25,19228.0,13.9,>=12,7.0,174.0,21.0,74.4,Y,Y,Y,Y,Y,Y
106,01-708-1019,CDISCPILOT01,ADSL,708,708,1019,19702.0,19712.0,19712.0,2013-12-20,19724.0,19746.0,2014-01-23,4.0,Y,ADVERSE EVENT,Y,Adverse Event,,13.0,Xanomeline Low Dose,Xan_Lo,1.0,54.0,54.0,702.0,Xanomeline Low Dose,Xan_Lo,1.0,68.0,65-80,2.0,YEARS,CAUCASIAN,1.0,M,22.2,<25,17154.0,83.7,>=12,18.0,182.9,17.0,74.4,Y,Y,Y,N,N,N
107,01-708-1032,CDISCPILOT01,ADSL,708,708,1032,19391.0,19398.0,19398.0,2013-02-09,19418.0,19426.0,2013-03-09,5.0,Y,ADVERSE EVENT,Y,Adverse Event,,21.0,Xanomeline Low Dose,Xan_Lo,1.0,54.0,54.0,1134.0,Xanomeline Low Dose,Xan_Lo,1.0,62.0,<65,1.0,YEARS,CAUCASIAN,1.0,M,26.100000000000005,25-<30,15537.0,126.7,>=12,12.0,177.8,18.0,82.6,Y,Y,Y,N,N,N
108,01-708-1084,CDISCPILOT01,ADSL,708,708,1084,19479.0,19487.0,19487.0,2013-05-09,19673.0,19673.0,2013-11-11,12.0,,PROTOCOL COMPLETED,,Completed,,187.0,Xanomeline Low Dose,Xan_Lo,1.0,54.0,54.0,10098.0,Xanomeline Low Dose,Xan_Lo,1.0,73.0,65-80,2.0,YEARS,CAUCASIAN,1.0,F,17.9,<25,18378.0,36.2,>=12,12.0,167.6,23.0,50.4,Y,Y,Y,Y,Y,Y
109,01-708-1087,CDISCPILOT01,ADSL,708,708,1087,19272.0,19288.0,19288.0,2012-10-22,19476.0,19476.0,2013-04-28,12.0,,PROTOCOL COMPLETED,,Completed,,189.0,Placebo,Pbo,5.397605346934028e-79,5.397605346934028e-79,5.397605346934028e-79,5.397605346934028e-79,Placebo,Pbo,5.397605346934028e-79,74.0,65-80,2.0,YEARS,CAUCASIAN,1.0,F,26.9,25-<30,17777.0,49.1,>=12,12.0,157.5,17.0,66.7,Y,Y,Y,Y,Y,Y
110,01-708-1158,CDISCPILOT01,ADSL,708,708,1158,19755.0,19762.0,19762.0,2014-02-08,19803.0,19804.0,2014-03-22,7.0,Y,ADVERSE EVENT,Y,Adverse Event,,42.0,Placebo,Pbo,5.397605346934028e-79,5.397605346934028e-79,5.397605346934028e-79,5.397605346934028e-79,Placebo,Pbo,5.397605346934028e-79,81.0,>80,3.0,YEARS,CAUCASIAN,1.0,F,27.8,25-<30,18475.0,42.1,>=12,8.0,162.6,16.0,73.5,Y,Y,Y,N,N,N
111,01-708-1171,CDISCPILOT01,ADSL,708,708,1171,19322.0,19333.0,19333.0,2012-12-06,19513.0,19513.0,2013-06-04,12.0,,PROTOCOL COMPLETED,,Completed,,181.0,Placebo,Pbo,5.397605346934028e-79,5.397605346934028e-79,5.397605346934028e-79,5.397605346934028e-79,Placebo,Pbo,5.397605346934028e-79,77.0,65-80,2.0,YEARS,CAUCASIAN,1.0,F,20.8,<25,18529.0,26.100000000000005,>=12,9.0,162.6,13.0,54.9,Y,Y,Y,Y,Y,Y
112,01-708-1178,CDISCPILOT01,ADSL,708,708,1178,19705.0,19721.0,19721.0,2013-12-29,19819.0,19819.0,2014-04-06,9.0,Y,PHYSICIAN DECISION,,Physician Decision,,99.0,Xanomeline High Dose,Xan_Hi,2.0,81.0,75.3,7452.0,Xanomeline High Dose,Xan_Hi,2.0,77.0,65-80,2.0,YEARS,"AFRICAN DESCENT (NEGRO, BLACK)",2.0,F,23.0,<25,17754.0,64.1,>=12,8.0,165.1,10.0,62.8,Y,Y,Y,N,N,Y
113,01-708-1213,CDISCPILOT01,ADSL,708,708,1213,19390.0,19398.0,19398.0,2013-02-09,19411.0,19415.0,2013-02-26,5.0,Y,ADVERSE EVENT,Y,Adverse Event,,14.0,Xanomeline High Dose,Xan_Hi,2.0,81.0,54.0,756.0,Xanomeline High Dose,Xan_Hi,2.0,76.0,65-80,2.0,YEARS,CAUCASIAN,1.0,F,15.3,<25,18664.0,23.9,>=12,12.0,165.1,14.0,41.7,Y,Y,N,N,N,N
114,01-708-1216,CDISCPILOT01,ADSL,708,708,1216,19280.0,19290.0,19290.0,2012-10-24,19326.0,19333.0,2012-12-06,7.0,Y,ADVERSE EVENT,Y,Adverse Event,,37.0,Xanomeline High Dose,Xan_Hi,2.0,81.0,69.3,2565.0,Xanomeline High Dose,Xan_Hi,2.0,78.0,65-80,2.0,YEARS,CAUCASIAN,1.0,M,25.9,25-<30,15171.0,135.0,>=12,12.0,172.7,17.0,77.1,Y,Y,Y,N,N,N
115,01-708-1236,CDISCPILOT01,ADSL,708,708,1236,19609.0,19622.0,19622.0,2013-09-21,19622.0,19627.0,2013-09-26,4.0,Y,PERSONAL CONFLICT OR OTHER PATIENT/CAREGIVER DECISION,,Withdrew Consent,,1.0,Xanomeline High Dose,Xan_Hi,2.0,81.0,54.0,54.0,Xanomeline High Dose,Xan_Hi,2.0,86.0,>80,3.0,YEARS,CAUCASIAN,1.0,F,23.4,<25,19244.0,12.0,>=12,8.0,152.4,22.0,54.4,Y,Y,N,N,N,N
116,01-708-1253,CDISCPILOT01,ADSL,708,708,1253,19474.0,19485.0,19485.0,2013-05-07,19667.0,19667.0,2013-11-05,12.0,,PROTOCOL COMPLETED,,Completed,,183.0,Placebo,Pbo,5.397605346934028e-79,5.397605346934028e-79,5.397605346934028e-79,5.397605346934028e-79,Placebo,Pbo,5.397605346934028e-79,61.0,<65,1.0,YEARS,CAUCASIAN,1.0,M,22.100000000000005,<25,17968.0,49.5,>=12,12.0,185.4,12.0,75.8,Y,Y,Y,Y,Y,Y
117,01-708-1272,CDISCPILOT01,ADSL,708,708,1272,19380.0,19395.0,19395.0,2013-02-06,19439.0,19452.0,2013-04-04,8.0,Y,PERSONAL CONFLICT OR OTHER PATIENT/CAREGIVER DECISION,,Withdrew Consent,,45.0,Xanomeline Low Dose,Xan_Lo,1.0,54.0,54.0,2430.0,Xanomeline Low Dose,Xan_Lo,1.0,82.0,>80,3.0,YEARS,CAUCASIAN,1.0,M,24.9,<25,17020.0,77.6,>=12,11.0,172.7,15.0,74.4,Y,Y,Y,N,N,Y
118,01-708-1286,CDISCPILOT01,ADSL,708,708,1286,19595.0,19611.0,19611.0,2013-09-10,19790.0,19790.0,2014-03-08,12.0,,PROTOCOL COMPLETED,,Completed,,180.0,Placebo,Pbo,5.397605346934028e-79,5.397605346934028e-79,5.397605346934028e-79,5.397605346934028e-79,Placebo,Pbo,5.397605346934028e-79,80.0,65-80,2.0,YEARS,"AFRICAN DESCENT (NEGRO, BLACK)",2.0,F,32.8,>=30,15251.0,142.8,>=12,12.0,152.4,10.0,76.2,Y,Y,Y,Y,Y,Y
119,01-708-1296,CDISCPILOT01,ADSL,708,708,1296,19516.0,19523.0,19523.0,2013-06-14,19704.0,19704.0,2013-12-12,12.0,,PROTOCOL COMPLETED,,Completed,,182.0,Placebo,Pbo,5.397605346934028e-79,5.397605346934028e-79,5.397605346934028e-79,5.397605346934028e-79,Placebo,Pbo,5.397605346934028e-79,57.0,<65,1.0,YEARS,"AFRICAN DESCENT (NEGRO, BLACK)",2.0,M,27.9,25-<30,18296.0,40.1,>=12,18.0,170.2,16.0,80.7,Y,Y,Y,Y,Y,Y
120,01-708-1297,CDISCPILOT01,ADSL,708,708,1297,19373.0,19383.0,19383.0,2013-01-25,19481.0,19486.0,2013-05-08,10.0,Y,ADVERSE EVENT,Y,Adverse Event,,99.0,Xanomeline Low Dose,Xan_Lo,1.0,54.0,54.0,5346.0,Xanomeline Low Dose,Xan_Lo,1.0,61.0,<65,1.0,YEARS,CAUCASIAN,1.0,M,23.0,<25,17589.0,58.6,>=12,13.0,185.4,23.0,78.9,Y,Y,Y,N,Y,Y
121,01-708-1316,CDISCPILOT01,ADSL,708,708,1316,19585.0,19593.0,19593.0,2013-08-23,19783.0,19783.0,2014-03-01,12.0,,PROTOCOL COMPLETED,,Completed,,191.0,Placebo,Pbo,5.397605346934028e-79,5.397605346934028e-79,5.397605346934028e-79,5.397605346934028e-79,Placebo,Pbo,5.397605346934028e-79,74.0,65-80,2.0,YEARS,CAUCASIAN,1.0,F,23.4,<25,18847.0,24.3,>=12,12.0,160.0,22.0,59.9,Y,Y,Y,Y,Y,Y
122,01-708-1336,CDISCPILOT01,ADSL,708,708,1336,19318.0,19334.0,19334.0,2012-12-07,19514.0,19514.0,2013-06-05,12.0,,PROTOCOL COMPLETED,,Completed,,181.0,Xanomeline High Dose,Xan_Hi,2.0,81.0,76.7,13878.0,Xanomeline High Dose,Xan_Hi,2.0,73.0,65-80,2.0,YEARS,CAUCASIAN,1.0,M,24.100000000000005,<25,15675.0,119.7,>=12,18.0,190.5,15.0,87.5,Y,Y,Y,Y,Y,Y
123,01-708-1342,CDISCPILOT01,ADSL,708,708,1342,19348.0,19356.0,19356.0,2012-12-29,19537.0,19537.0,2013-06-28,12.0,,PROTOCOL COMPLETED,,Completed,,182.0,Placebo,Pbo,5.397605346934028e-79,5.397605346934028e-79,5.397605346934028e-79,5.397605346934028e-79,Placebo,Pbo,5.397605346934028e-79,59.0,<65,1.0,YEARS,CAUCASIAN,1.0,F,20.4,<25,18529.0,26.9,>=12,13.0,170.2,18.0,59.0,Y,Y,Y,Y,Y,Y
124,01-708-1347,CDISCPILOT01,ADSL,708,708,1347,19459.0,19468.0,19468.0,2013-04-20,19527.0,19527.0,2013-06-18,9.0,Y,ADVERSE EVENT,Y,Adverse Event,,60.0,Xanomeline High Dose,Xan_Hi,2.0,81.0,74.3,4455.0,Xanomeline High Dose,Xan_Hi,2.0,61.0,<65,1.0,YEARS,CAUCASIAN,1.0,F,29.2,25-<30,18040.0,46.7,>=12,12.0,160.0,22.0,74.8,Y,Y,Y,N,N,Y
125,01-708-1348,CDISCPILOT01,ADSL,708,708,1348,19567.0,19575.0,19575.0,2013-08-05,19767.0,19767.0,2014-02-13,12.0,,PROTOCOL COMPLETED,,Completed,,193.0,Xanomeline Low Dose,Xan_Lo,1.0,54.0,54.0,10422.0,Xanomeline Low Dose,Xan_Lo,1.0,79.0,65-80,2.0,YEARS,CAUCASIAN,1.0,F,23.600000000000005,<25,18472.0,36.0,>=12,12.0,160.0,13.0,60.3,Y,Y,Y,Y,Y,Y
126,01-708-1353,CDISCPILOT01,ADSL,708,708,1353,19526.0,19543.0,19543.0,2013-07-04,19598.0,19611.0,2013-09-10,8.0,Y,ADVERSE EVENT,Y,Adverse Event,,56.0,Xanomeline Low Dose,Xan_Lo,1.0,54.0,54.0,3024.0,Xanomeline Low Dose,Xan_Lo,1.0,87.0,>80,3.0,YEARS,"AFRICAN DESCENT (NEGRO, BLACK)",2.0,F,20.3,<25,18480.0,34.4,>=12,16.0,157.5,16.0,50.4,Y,Y,Y,N,N,Y
127,01-708-1372,CDISCPILOT01,ADSL,708,708,1372,19451.0,19460.0,19460.0,2013-04-12,19467.0,19488.0,2013-05-10,4.0,Y,PROTOCOL ENTRY CRITERIA NOT MET,,I/E Not Met,,8.0,Xanomeline High Dose,Xan_Hi,2.0,81.0,54.0,432.0,Xanomeline High Dose,Xan_Hi,2.0,84.0,>80,3.0,YEARS,CAUCASIAN,1.0,M,30.7,>=30,17426.0,66.6,>=12,8.0,170.2,17.0,88.9,Y,Y,N,N,N,N
128,01-708-1378,CDISCPILOT01,ADSL,708,708,1378,19594.0,19604.0,19604.0,2013-09-03,19751.0,19751.0,2014-01-28,11.0,Y,SPONSOR DECISION (STUDY OR PATIENT DISCONTINUED BY THE SPONSOR),,Sponsor Decision,,148.0,Placebo,Pbo,5.397605346934028e-79,5.397605346934028e-79,5.397605346934028e-79,5.397605346934028e-79,Placebo,Pbo,5.397605346934028e-79,67.0,65-80,2.0,YEARS,"AFRICAN DESCENT (NEGRO, BLACK)",2.0,M,24.3,<25,17972.0,53.3,>=12,13.0,170.2,20.0,70.3,Y,Y,Y,N,Y,Y
129,01-708-1406,CDISCPILOT01,ADSL,708,708,1406,19698.0,19718.0,19718.0,2013-12-26,19906.0,19906.0,2014-07-02,12.0,,PROTOCOL COMPLETED,,Completed,,189.0,Xanomeline High Dose,Xan_Hi,2.0,81.0,76.6,14472.0,Xanomeline High Dose,Xan_Hi,2.0,71.0,65-80,2.0,YEARS,CAUCASIAN,1.0,F,22.100000000000005,<25,18437.0,41.5,>=12,13.0,157.5,15.0,54.9,Y,Y,Y,Y,Y,Y
130,01-708-1428,CDISCPILOT01,ADSL,708,708,1428,19664.0,19671.0,19671.0,2013-11-09,19706.0,19754.0,2014-01-31,8.0,Y,ADVERSE EVENT,Y,Adverse Event,,36.0,Xanomeline Low Dose,Xan_Lo,1.0,54.0,54.0,1944.0,Xanomeline Low Dose,Xan_Lo,1.0,84.0,>80,3.0,YEARS,CAUCASIAN,1.0,F,23.8,<25,18562.0,36.2,>=12,8.0,157.5,19.0,59.0,Y,Y,Y,N,N,Y
131,01-709-1001,CDISCPILOT01,ADSL,709,709,1001,19621.0,19639.0,19639.0,2013-10-08,19821.0,19821.0,2014-04-08,12.0,,PROTOCOL COMPLETED,,Completed,,183.0,Placebo,Pbo,5.397605346934028e-79,5.397605346934028e-79,5.397605346934028e-79,5.397605346934028e-79,Placebo,Pbo,5.397605346934028e-79,76.0,65-80,2.0,YEARS,CAUCASIAN,1.0,F,25.2,25-<30,18657.0,31.7,>=12,12.0,170.2,15.0,73.0,Y,Y,Y,Y,Y,Y
132,01-709-1007,CDISCPILOT01,ADSL,709,709,1007,19195.0,19205.0,19205.0,2012-07-31,19233.0,19237.0,2012-09-01,5.0,Y,ADVERSE EVENT,Y,Adverse Event,,29.0,Xanomeline Low Dose,Xan_Lo,1.0,54.0,54.0,1566.0,Xanomeline Low Dose,Xan_Lo,1.0,54.0,<65,1.0,YEARS,CAUCASIAN,1.0,F,23.8,<25,17225.0,64.8,>=12,21.0,158.8,10.0,59.9,Y,Y,N,N,N,N
133,01-709-1020,CDISCPILOT01,ADSL,709,709,1020,19319.0,19328.0,19328.0,2012-12-01,19510.0,19510.0,2013-06-01,12.0,,PROTOCOL COMPLETED,,Completed,,183.0,Xanomeline Low Dose,Xan_Lo,1.0,54.0,54.0,9882.0,Xanomeline Low Dose,Xan_Lo,1.0,72.0,65-80,2.0,YEARS,CAUCASIAN,1.0,F,25.9,25-<30,17954.0,44.9,>=12,12.0,144.8,15.0,54.4,Y,Y,Y,Y,Y,Y
134,01-709-1029,CDISCPILOT01,ADSL,709,709,1029,19337.0,19352.0,19352.0,2012-12-25,19535.0,19535.0,2013-06-26,12.0,,PROTOCOL COMPLETED,,Completed,,184.0,Xanomeline High Dose,Xan_Hi,2.0,81.0,76.6,14094.0,Xanomeline High Dose,Xan_Hi,2.0,82.0,>80,3.0,YEARS,CAUCASIAN,1.0,M,23.100000000000005,<25,18050.0,42.3,>=12,20.0,172.7,16.0,69.0,Y,Y,Y,Y,Y,Y
135,01-709-1081,CDISCPILOT01,ADSL,709,709,1081,19732.0,19741.0,19741.0,2014-01-18,19840.0,19853.0,2014-05-10,10.0,Y,ADVERSE EVENT,Y,Adverse Event,,100.0,Xanomeline Low Dose,Xan_Lo,1.0,54.0,54.0,5400.0,Xanomeline Low Dose,Xan_Lo,1.0,86.0,>80,3.0,YEARS,CAUCASIAN,1.0,F,23.5,<25,18845.0,29.2,>=12,9.0,154.9,21.0,56.5,Y,Y,Y,N,Y,Y
136,01-709-1088,CDISCPILOT01,ADSL,709,709,1088,19812.0,19825.0,19825.0,2014-04-12,20005.0,20005.0,2014-10-09,12.0,,PROTOCOL COMPLETED,,Completed,,181.0,Placebo,Pbo,5.397605346934028e-79,5.397605346934028e-79,5.397605346934028e-79,5.397605346934028e-79,Placebo,Pbo,5.397605346934028e-79,69.0,65-80,2.0,YEARS,CAUCASIAN,1.0,M,24.8,<25,19048.0,25.100000000000005,>=12,16.0,179.1,23.0,79.4,Y,Y,Y,Y,Y,Y
137,01-709-1099,CDISCPILOT01,ADSL,709,709,1099,19645.0,19656.0,19656.0,2013-10-25,19838.0,19838.0,2014-04-25,12.0,,PROTOCOL COMPLETED,,Completed,,183.0,Xanomeline High Dose,Xan_Hi,2.0,81.0,76.1,13932.0,Xanomeline High Dose,Xan_Hi,2.0,79.0,65-80,2.0,YEARS,CAUCASIAN,1.0,F,19.600000000000005,<25,18007.0,53.8,>=12,12.0,165.1,11.0,53.5,Y,Y,Y,Y,Y,Y
138,01-709-1102,CDISCPILOT01,ADSL,709,709,1102,19365.0,19373.0,19373.0,2013-01-15,19444.0,19448.0,2013-03-31,9.0,Y,ADVERSE EVENT,Y,Adverse Event,,72.0,Xanomeline Low Dose,Xan_Lo,1.0,54.0,54.0,3888.0,Xanomeline Low Dose,Xan_Lo,1.0,71.0,65-80,2.0,YEARS,CAUCASIAN,1.0,F,32.1,>=30,18091.0,41.9,>=12,14.0,166.4,16.0,88.9,Y,Y,Y,N,N,Y
139,01-709-1168,CDISCPILOT01,ADSL,709,709,1168,19564.0,19572.0,19572.0,2013-08-02,19627.0,19628.0,2013-09-27,8.0,Y,ADVERSE EVENT,Y,Adverse Event,,56.0,Xanomeline High Dose,Xan_Hi,2.0,81.0,73.3,4104.0,Xanomeline High Dose,Xan_Hi,2.0,72.0,65-80,2.0,YEARS,CAUCASIAN,1.0,F,27.600000000000005,25-<30,18199.0,44.9,>=12,12.0,149.9,20.0,62.1,Y,Y,Y,N,N,Y
140,01-709-1217,CDISCPILOT01,ADSL,709,709,1217,19405.0,19421.0,19421.0,2013-03-04,19520.0,19534.0,2013-06-25,10.0,Y,ADVERSE EVENT,Y,Adverse Event,,100.0,Xanomeline Low Dose,Xan_Lo,1.0,54.0,54.0,5400.0,Xanomeline Low Dose,Xan_Lo,1.0,77.0,65-80,2.0,YEARS,CAUCASIAN,1.0,M,23.100000000000005,<25,17816.0,52.2,>=12,6.0,171.5,14.0,68.0,Y,Y,Y,N,Y,Y
141,01-709-1238,CDISCPILOT01,ADSL,709,709,1238,19480.0,19493.0,19493.0,2013-05-15,19576.0,19577.0,2013-08-07,9.0,Y,ADVERSE EVENT,Y,Adverse Event,,84.0,Xanomeline High Dose,Xan_Hi,2.0,81.0,76.2,6399.0,Xanomeline High Dose,Xan_Hi,2.0,69.0,65-80,2.0,YEARS,CAUCASIAN,1.0,M,28.5,25-<30,18913.0,18.7,>=12,8.0,170.2,24.0,82.6,Y,Y,Y,N,N,Y
142,01-709-1259,CDISCPILOT01,ADSL,709,709,1259,19371.0,19384.0,19384.0,2013-01-26,19522.0,19522.0,2013-06-13,11.0,Y,"LACK OF EFFICACY, PATIENT CAREGIVER PERCEPTION",,Lack of Efficacy,,139.0,Placebo,Pbo,5.397605346934028e-79,5.397605346934028e-79,5.397605346934028e-79,5.397605346934028e-79,Placebo,Pbo,5.397605346934028e-79,82.0,>80,3.0,YEARS,CAUCASIAN,1.0,M,21.9,<25,17750.0,53.3,>=12,18.0,172.7,20.0,65.3,Y,Y,Y,N,Y,Y
143,01-709-1285,CDISCPILOT01,ADSL,709,709,1285,19434.0,19441.0,19441.0,2013-03-24,19501.0,19509.0,2013-05-31,9.0,Y,SPONSOR DECISION (STUDY OR PATIENT DISCONTINUED BY THE SPONSOR),,Sponsor Decision,,61.0,Xanomeline Low Dose,Xan_Lo,1.0,54.0,54.0,3294.0,Xanomeline Low Dose,Xan_Lo,1.0,87.0,>80,3.0,YEARS,CAUCASIAN,1.0,M,23.100000000000005,<25,18158.0,42.0,>=12,6.0,167.6,16.0,64.9,Y,Y,Y,N,N,Y
144,01-709-1301,CDISCPILOT01,ADSL,709,709,1301,19553.0,19558.0,19558.0,2013-07-19,19740.0,19740.0,2014-01-17,12.0,,PROTOCOL COMPLETED,,Completed,,183.0,Placebo,Pbo,5.397605346934028e-79,5.397605346934028e-79,5.397605346934028e-79,5.397605346934028e-79,Placebo,Pbo,5.397605346934028e-79,62.0,<65,1.0,YEARS,CAUCASIAN,1.0,F,23.600000000000005,<25,17932.0,53.3,>=12,10.0,146.1,10.0,50.4,Y,Y,Y,Y,Y,Y
145,01-709-1306,CDISCPILOT01,ADSL,709,709,1306,19742.0,19757.0,19757.0,2014-02-03,19890.0,19899.0,2014-06-25,11.0,Y,ADVERSE EVENT,Y,Adverse Event,,134.0,Placebo,Pbo,5.397605346934028e-79,5.397605346934028e-79,5.397605346934028e-79,5.397605346934028e-79,Placebo,Pbo,5.397605346934028e-79,60.0,<65,1.0,YEARS,CAUCASIAN,1.0,F,18.5,<25,17930.0,59.6,>=12,12.0,154.9,21.0,44.5,Y,Y,Y,N,Y,Y
146,01-709-1309,CDISCPILOT01,ADSL,709,709,1309,19518.0,19528.0,19528.0,2013-06-19,19711.0,19711.0,2013-12-19,12.0,,PROTOCOL COMPLETED,,Completed,,184.0,Xanomeline High Dose,Xan_Hi,2.0,81.0,77.0,14175.0,Xanomeline High Dose,Xan_Hi,2.0,65.0,65-80,2.0,YEARS,CAUCASIAN,1.0,M,24.8,<25,18252.0,41.6,>=12,16.0,177.8,17.0,78.5,Y,Y,Y,Y,Y,Y
147,01-709-1312,CDISCPILOT01,ADSL,709,709,1312,19826.0,19833.0,19833.0,2014-04-20,20015.0,20015.0,2014-10-19,12.0,,PROTOCOL COMPLETED,,Completed,,183.0,Placebo,Pbo,5.397605346934028e-79,5.397605346934028e-79,5.397605346934028e-79,5.397605346934028e-79,Placebo,Pbo,5.397605346934028e-79,68.0,65-80,2.0,YEARS,CAUCASIAN,1.0,F,20.9,<25,18473.0,44.5,>=12,13.0,160.0,14.0,53.5,Y,Y,Y,Y,Y,Y
148,01-709-1326,CDISCPILOT01,ADSL,709,709,1326,19438.0,19453.0,19453.0,2013-04-05,19633.0,19633.0,2013-10-02,12.0,,PROTOCOL COMPLETED,,Completed,,181.0,Xanomeline Low Dose,Xan_Lo,1.0,54.0,54.0,9774.0,Xanomeline Low Dose,Xan_Lo,1.0,75.0,65-80,2.0,YEARS,CAUCASIAN,1.0,F,28.7,25-<30,18524.0,30.100000000000005,>=12,16.0,161.3,11.0,74.8,Y,Y,Y,Y,Y,Y
149,01-709-1329,CDISCPILOT01,ADSL,709,709,1329,19571.0,19585.0,19585.0,2013-08-15,19595.0,19599.0,2013-08-29,4.0,Y,PERSONAL CONFLICT OR OTHER PATIENT/CAREGIVER DECISION,,Withdrew Consent,,11.0,Xanomeline High Dose,Xan_Hi,2.0,81.0,54.0,594.0,Xanomeline High Dose,Xan_Hi,2.0,70.0,65-80,2.0,YEARS,CAUCASIAN,1.0,M,26.5,25-<30,17964.0,52.8,>=12,16.0,170.2,10.0,76.7,Y,Y,Y,N,N,N
150,01-709-1339,CDISCPILOT01,ADSL,709,709,1339,19342.0,19350.0,19350.0,2012-12-23,19533.0,19533.0,2013-06-24,12.0,,PROTOCOL COMPLETED,,Completed,,184.0,Placebo,Pbo,5.397605346934028e-79,5.397605346934028e-79,5.397605346934028e-79,5.397605346934028e-79,Placebo,Pbo,5.397605346934028e-79,81.0,>80,3.0,YEARS,CAUCASIAN,1.0,M,25.4,25-<30,18324.0,33.5,>=12,16.0,175.3,23.0,78.0,Y,Y,Y,Y,Y,Y
151,01-709-1424,CDISCPILOT01,ADSL,709,709,1424,19404.0,19420.0,19420.0,2013-03-03,19424.0,19425.0,2013-03-08,4.0,Y,ADVERSE EVENT,Y,Adverse Event,,5.0,Xanomeline High Dose,Xan_Hi,2.0,81.0,54.0,270.0,Xanomeline High Dose,Xan_Hi,2.0,77.0,65-80,2.0,YEARS,CAUCASIAN,1.0,M,22.600000000000005,<25,17421.0,65.2,>=12,16.0,174.0,18.0,68.5,Y,Y,Y,N,N,N
152,01-710-1002,CDISCPILOT01,ADSL,710,710,1002,19722.0,19737.0,19737.0,2014-01-14,19741.0,19741.0,2014-01-18,4.0,Y,ADVERSE EVENT,Y,Adverse Event,,5.0,Xanomeline Low Dose,Xan_Lo,1.0,54.0,54.0,270.0,Xanomeline Low Dose,Xan_Lo,1.0,88.0,>80,3.0,YEARS,CAUCASIAN,1.0,M,25.8,25-<30,17539.0,71.8,>=12,12.0,165.1,17.0,70.3,Y,Y,Y,N,N,N
153,01-710-1006,CDISCPILOT01,ADSL,710,710,1006,19385.0,19399.0,19399.0,2013-02-10,19579.0,19580.0,2013-08-10,12.0,,PROTOCOL COMPLETED,,Completed,,181.0,Xanomeline High Dose,Xan_Hi,2.0,81.0,77.1,13959.0,Xanomeline High Dose,Xan_Hi,2.0,77.0,65-80,2.0,YEARS,CAUCASIAN,1.0,M,25.100000000000005,25-<30,19033.0,11.6,<12,12.0,170.2,12.0,72.6,Y,Y,Y,Y,Y,Y
154,01-710-1021,CDISCPILOT01,ADSL,710,710,1021,19620.0,19628.0,19628.0,2013-09-27,19660.0,19674.0,2013-11-12,7.0,Y,ADVERSE EVENT,Y,Adverse Event,,33.0,Xanomeline High Dose,Xan_Hi,2.0,81.0,68.7,2268.0,Xanomeline High Dose,Xan_Hi,2.0,79.0,65-80,2.0,YEARS,"AFRICAN DESCENT (NEGRO, BLACK)",2.0,M,21.3,<25,19183.0,14.4,>=12,8.0,162.6,11.0,56.3,Y,Y,N,N,N,N
155,01-710-1027,CDISCPILOT01,ADSL,710,710,1027,19757.0,19782.0,19782.0,2014-02-28,19964.0,19964.0,2014-08-29,12.0,,PROTOCOL COMPLETED,,Completed,,183.0,Placebo,Pbo,5.397605346934028e-79,5.397605346934028e-79,5.397605346934028e-79,5.397605346934028e-79,Placebo,Pbo,5.397605346934028e-79,83.0,>80,3.0,YEARS,CAUCASIAN,1.0,M,24.4,<25,19027.0,24.0,>=12,12.0,170.2,20.0,70.8,Y,Y,Y,Y,Y,Y
156,01-710-1045,CDISCPILOT01,ADSL,710,710,1045,19498.0,19512.0,19512.0,2013-06-03,19583.0,19587.0,2013-08-17,9.0,Y,ADVERSE EVENT,Y,Adverse Event,,72.0,Xanomeline Low Dose,Xan_Lo,1.0,54.0,54.0,3888.0,Xanomeline Low Dose,Xan_Lo,1.0,83.0,>80,3.0,YEARS,CAUCASIAN,1.0,F,22.0,<25,18394.0,36.3,>=12,12.0,162.6,14.0,58.1,Y,Y,Y,N,N,Y
157,01-710-1053,CDISCPILOT01,ADSL,710,710,1053,19342.0,19353.0,19353.0,2012-12-26,19399.0,19404.0,2013-02-15,8.0,Y,ADVERSE EVENT,Y,Adverse Event,,47.0,Xanomeline Low Dose,Xan_Lo,1.0,54.0,54.0,2538.0,Xanomeline Low Dose,Xan_Lo,1.0,84.0,>80,3.0,YEARS,CAUCASIAN,1.0,F,20.8,<25,18935.0,13.4,>=12,12.0,157.5,20.0,51.7,Y,Y,Y,N,N,Y
158,01-710-1060,CDISCPILOT01,ADSL,710,710,1060,19351.0,19359.0,19359.0,2013-01-01,19544.0,19544.0,2013-07-05,12.0,,PROTOCOL COMPLETED,,Completed,,186.0,Placebo,Pbo,5.397605346934028e-79,5.397605346934028e-79,5.397605346934028e-79,5.397605346934028e-79,Placebo,Pbo,5.397605346934028e-79,82.0,>80,3.0,YEARS,CAUCASIAN,1.0,M,21.0,<25,18519.0,27.4,>=12,16.0,182.9,23.0,70.3,Y,Y,Y,Y,Y,Y
159,01-710-1070,CDISCPILOT01,ADSL,710,710,1070,19233.0,19244.0,19244.0,2012-09-08,19380.0,19412.0,2013-02-23,11.0,Y,ADVERSE EVENT,Y,Adverse Event,,137.0,Xanomeline High Dose,Xan_Hi,2.0,81.0,78.0,10692.0,Xanomeline High Dose,Xan_Hi,2.0,85.0,>80,3.0,YEARS,CAUCASIAN,1.0,F,21.8,<25,18513.0,23.7,>=12,10.0,149.9,10.0,49.0,Y,Y,Y,N,Y,Y
160,01-710-1077,CDISCPILOT01,ADSL,710,710,1077,19665.0,19679.0,19679.0,2013-11-17,19861.0,19861.0,2014-05-18,12.0,,PROTOCOL COMPLETED,,Completed,,183.0,Placebo,Pbo,5.397605346934028e-79,5.397605346934028e-79,5.397605346934028e-79,5.397605346934028e-79,Placebo,Pbo,5.397605346934028e-79,76.0,65-80,2.0,YEARS,CAUCASIAN,1.0,F,18.5,<25,18789.0,28.8,>=12,12.0,162.6,14.0,49.0,Y,Y,Y,Y,Y,Y
161,01-710-1078,CDISCPILOT01,ADSL,710,710,1078,19607.0,19618.0,19618.0,2013-09-17,19805.0,19805.0,2014-03-23,12.0,,PROTOCOL COMPLETED,,Completed,,188.0,Placebo,Pbo,5.397605346934028e-79,5.397605346934028e-79,5.397605346934028e-79,5.397605346934028e-79,Placebo,Pbo,5.397605346934028e-79,81.0,>80,3.0,YEARS,CAUCASIAN,1.0,F,18.0,<25,18864.0,24.4,>=12,12.0,152.4,21.0,41.7,Y,Y,Y,Y,Y,Y
162,01-710-1083,CDISCPILOT01,ADSL,710,710,1083,19548.0,19561.0,19561.0,2013-07-22,19571.0,19573.0,2013-08-03,4.0,Y,DEATH,,Death,Y,11.0,Placebo,Pbo,5.397605346934028e-79,5.397605346934028e-79,5.397605346934028e-79,5.397605346934028e-79,Placebo,Pbo,5.397605346934028e-79,89.0,>80,3.0,YEARS,CAUCASIAN,1.0,F,19.0,<25,18827.0,23.7,>=12,14.0,157.5,14.0,47.2,Y,Y,N,N,N,N
163,01-710-1137,CDISCPILOT01,ADSL,710,710,1137,19634.0,19642.0,19642.0,2013-10-11,19675.0,19675.0,2013-11-13,7.0,Y,ADVERSE EVENT,Y,Adverse Event,,34.0,Xanomeline High Dose,Xan_Hi,2.0,81.0,69.1,2349.0,Xanomeline High Dose,Xan_Hi,2.0,79.0,65-80,2.0,YEARS,"AFRICAN DESCENT (NEGRO, BLACK)",2.0,F,24.0,<25,18182.0,47.7,>=12,16.0,165.1,18.0,65.3,Y,Y,N,N,N,N
164,01-710-1142,CDISCPILOT01,ADSL,710,710,1142,19248.0,19268.0,19268.0,2012-10-02,19286.0,19289.0,2012-10-23,5.0,Y,ADVERSE EVENT,Y,Adverse Event,,19.0,Xanomeline High Dose,Xan_Hi,2.0,81.0,59.7,1134.0,Xanomeline High Dose,Xan_Hi,2.0,76.0,65-80,2.0,YEARS,CAUCASIAN,1.0,F,24.8,<25,18531.0,23.600000000000005,>=12,12.0,152.4,23.0,57.6,Y,Y,Y,N,N,N
165,01-710-1154,CDISCPILOT01,ADSL,710,710,1154,19790.0,19811.0,19811.0,2014-03-29,19840.0,19852.0,2014-05-09,7.0,Y,ADVERSE EVENT,Y,Adverse Event,,30.0,Xanomeline Low Dose,Xan_Lo,1.0,54.0,54.0,1620.0,Xanomeline Low Dose,Xan_Lo,1.0,84.0,>80,3.0,YEARS,"HISPANIC (MEXICAN - AMERICAN, MEXICO, CENTRAL AND SOUTH AMERICA)",5.0,M,32.3,>=30,17587.0,72.4,>=12,3.0,160.0,13.0,82.6,Y,Y,Y,N,N,N
166,01-710-1166,CDISCPILOT01,ADSL,710,710,1166,19307.0,19327.0,19327.0,2012-11-30,19436.0,19447.0,2013-03-30,10.0,Y,ADVERSE EVENT,Y,Adverse Event,,110.0,Xanomeline Low Dose,Xan_Lo,1.0,54.0,54.0,5940.0,Xanomeline Low Dose,Xan_Lo,1.0,81.0,>80,3.0,YEARS,CAUCASIAN,1.0,F,22.100000000000005,<25,17480.0,60.1,>=12,12.0,157.5,18.0,54.9,Y,Y,Y,N,Y,Y
167,01-710-1183,CDISCPILOT01,ADSL,710,710,1183,19655.0,19678.0,19678.0,2013-11-16,19860.0,19860.0,2014-05-17,12.0,,PROTOCOL COMPLETED,,Completed,,183.0,Placebo,Pbo,5.397605346934028e-79,5.397605346934028e-79,5.397605346934028e-79,5.397605346934028e-79,Placebo,Pbo,5.397605346934028e-79,80.0,65-80,2.0,YEARS,CAUCASIAN,1.0,F,21.2,<25,19291.0,12.0,>=12,8.0,149.9,16.0,47.6,Y,Y,Y,Y,Y,Y
168,01-710-1187,CDISCPILOT01,ADSL,710,710,1187,19292.0,19307.0,19307.0,2012-11-10,19490.0,19490.0,2013-05-12,12.0,,PROTOCOL COMPLETED,,Completed,,184.0,Xanomeline High Dose,Xan_Hi,2.0,81.0,76.7,14121.0,Xanomeline High Dose,Xan_Hi,2.0,78.0,65-80,2.0,YEARS,CAUCASIAN,1.0,F,20.8,<25,18557.0,24.2,>=12,8.0,154.9,11.0,49.9,Y,Y,Y,Y,Y,Y
169,01-710-1235,CDISCPILOT01,ADSL,710,710,1235,19249.0,19262.0,19262.0,2012-09-26,19444.0,19444.0,2013-03-27,12.0,,PROTOCOL COMPLETED,,Completed,,183.0,Xanomeline Low Dose,Xan_Lo,1.0,54.0,54.0,9882.0,Xanomeline Low Dose,Xan_Lo,1.0,56.0,<65,1.0,YEARS,"HISPANIC (MEXICAN - AMERICAN, MEXICO, CENTRAL AND SOUTH AMERICA)",5.0,F,33.0,>=30,18234.0,33.4,>=12,16.0,170.2,20.0,95.7,Y,Y,Y,Y,Y,Y
170,01-710-1249,CDISCPILOT01,ADSL,710,710,1249,19711.0,19720.0,19720.0,2013-12-28,19902.0,19902.0,2014-06-28,12.0,,PROTOCOL COMPLETED,,Completed,,183.0,Xanomeline High Dose,Xan_Hi,2.0,81.0,76.7,14040.0,Xanomeline High Dose,Xan_Hi,2.0,79.0,65-80,2.0,YEARS,CAUCASIAN,1.0,M,25.4,25-<30,17893.0,59.8,>=12,12.0,177.8,20.0,80.3,Y,Y,Y,Y,Y,Y
171,01-710-1264,CDISCPILOT01,ADSL,710,710,1264,19511.0,19522.0,19522.0,2013-06-13,19642.0,19643.0,2013-10-12,11.0,Y,ADVERSE EVENT,Y,Adverse Event,,121.0,Placebo,Pbo,5.397605346934028e-79,5.397605346934028e-79,5.397605346934028e-79,5.397605346934028e-79,Placebo,Pbo,5.397605346934028e-79,78.0,65-80,2.0,YEARS,CAUCASIAN,1.0,M,29.100000000000005,25-<30,18419.0,35.9,>=12,12.0,167.6,14.0,81.7,Y,Y,Y,N,Y,Y
172,01-710-1270,CDISCPILOT01,ADSL,710,710,1270,19755.0,19766.0,19766.0,2014-02-12,19783.0,19783.0,2014-03-01,4.0,Y,ADVERSE EVENT,Y,Adverse Event,,18.0,Xanomeline Low Dose,Xan_Lo,1.0,54.0,54.0,972.0,Xanomeline Low Dose,Xan_Lo,1.0,83.0,>80,3.0,YEARS,CAUCASIAN,1.0,F,25.600000000000005,25-<30,19163.0,19.5,>=12,12.0,149.9,11.0,57.6,Y,Y,Y,N,N,N
173,01-710-1271,CDISCPILOT01,ADSL,710,710,1271,19240.0,19263.0,19263.0,2012-09-27,19318.0,19329.0,2012-12-02,8.0,Y,ADVERSE EVENT,Y,Adverse Event,,56.0,Placebo,Pbo,5.397605346934028e-79,5.397605346934028e-79,5.397605346934028e-79,5.397605346934028e-79,Placebo,Pbo,5.397605346934028e-79,86.0,>80,3.0,YEARS,CAUCASIAN,1.0,F,21.2,<25,18875.0,12.0,>=12,16.0,149.9,18.0,47.6,Y,Y,N,N,N,Y
174,01-710-1278,CDISCPILOT01,ADSL,710,710,1278,19340.0,19351.0,19351.0,2012-12-24,19415.0,19420.0,2013-03-03,9.0,Y,ADVERSE EVENT,Y,Adverse Event,,65.0,Xanomeline High Dose,Xan_Hi,2.0,81.0,74.8,4860.0,Xanomeline High Dose,Xan_Hi,2.0,81.0,>80,3.0,YEARS,CAUCASIAN,1.0,M,22.7,<25,18969.0,12.2,>=12,20.0,177.8,14.0,71.7,Y,Y,Y,N,N,Y
175,01-710-1300,CDISCPILOT01,ADSL,710,710,1300,19331.0,19342.0,19342.0,2012-12-15,19404.0,19408.0,2013-02-19,9.0,Y,ADVERSE EVENT,Y,Adverse Event,,63.0,Xanomeline Low Dose,Xan_Lo,1.0,54.0,54.0,3402.0,Xanomeline Low Dose,Xan_Lo,1.0,78.0,65-80,2.0,YEARS,CAUCASIAN,1.0,F,20.100000000000005,<25,18947.0,12.6,>=12,12.0,152.4,13.0,46.7,Y,Y,Y,N,N,Y
176,01-710-1314,CDISCPILOT01,ADSL,710,710,1314,19469.0,19472.0,19472.0,2013-04-24,19501.0,19503.0,2013-05-25,6.0,Y,PERSONAL CONFLICT OR OTHER PATIENT/CAREGIVER DECISION,,Withdrew Consent,,30.0,Placebo,Pbo,5.397605346934028e-79,5.397605346934028e-79,5.397605346934028e-79,5.397605346934028e-79,Placebo,Pbo,5.397605346934028e-79,78.0,65-80,2.0,YEARS,CAUCASIAN,1.0,F,22.600000000000005,<25,18731.0,24.3,>=12,12.0,137.2,12.0,42.6,Y,Y,N,N,N,N
177,01-710-1315,CDISCPILOT01,ADSL,710,710,1315,19401.0,19416.0,19416.0,2013-02-27,19545.0,19555.0,2013-07-16,11.0,Y,ADVERSE EVENT,Y,Adverse Event,,130.0,Placebo,Pbo,5.397605346934028e-79,5.397605346934028e-79,5.397605346934028e-79,5.397605346934028e-79,Placebo,Pbo,5.397605346934028e-79,83.0,>80,3.0,YEARS,CAUCASIAN,1.0,F,24.2,<25,18859.0,17.8,>=12,12.0,152.4,12.0,56.3,Y,Y,Y,N,Y,Y
178,01-710-1354,CDISCPILOT01,ADSL,710,710,1354,19295.0,19308.0,19308.0,2012-11-11,19479.0,19479.0,2013-05-01,12.0,,PROTOCOL COMPLETED,,Completed,,172.0,Xanomeline High Dose,Xan_Hi,2.0,81.0,77.1,13257.0,Xanomeline High Dose,Xan_Hi,2.0,73.0,65-80,2.0,YEARS,CAUCASIAN,1.0,M,26.7,25-<30,18937.0,11.8,<12,16.0,182.9,23.0,89.4,Y,Y,Y,Y,Y,Y
179,01-710-1358,CDISCPILOT01,ADSL,710,710,1358,19238.0,19253.0,19253.0,2012-09-17,19398.0,19429.0,2013-03-12,12.0,Y,PERSONAL CONFLICT OR OTHER PATIENT/CAREGIVER DECISION,,Withdrew Consent,,146.0,Xanomeline Low Dose,Xan_Lo,1.0,54.0,54.0,7884.0,Xanomeline Low Dose,Xan_Lo,1.0,82.0,>80,3.0,YEARS,CAUCASIAN,1.0,M,31.100000000000005,>=30,18138.0,36.2,>=12,6.0,162.6,13.0,82.1,Y,Y,Y,Y,Y,Y
180,01-710-1368,CDISCPILOT01,ADSL,710,710,1368,19652.0,19654.0,19654.0,2013-10-23,19837.0,19837.0,2014-04-24,12.0,,PROTOCOL COMPLETED,,Completed,,184.0,Placebo,Pbo,5.397605346934028e-79,5.397605346934028e-79,5.397605346934028e-79,5.397605346934028e-79,Placebo,Pbo,5.397605346934028e-79,88.0,>80,3.0,YEARS,CAUCASIAN,1.0,F,15.7,<25,18912.0,24.3,>=12,12.0,147.3,13.0,34.0,Y,Y,Y,Y,Y,Y
181,01-710-1385,CDISCPILOT01,ADSL,710,710,1385,19287.0,19295.0,19295.0,2012-10-29,19407.0,19407.0,2013-02-18,10.0,Y,ADVERSE EVENT,Y,Adverse Event,,113.0,Xanomeline Low Dose,Xan_Lo,1.0,54.0,54.0,6102.0,Xanomeline Low Dose,Xan_Lo,1.0,77.0,65-80,2.0,YEARS,CAUCASIAN,1.0,M,25.2,25-<30,18928.0,11.8,<12,18.0,182.9,14.0,84.4,Y,Y,Y,N,Y,Y
182,01-710-1408,CDISCPILOT01,ADSL,710,710,1408,19353.0,19363.0,19363.0,2013-01-05,19551.0,19551.0,2013-07-12,12.0,,PROTOCOL COMPLETED,,Completed,,189.0,Xanomeline High Dose,Xan_Hi,2.0,81.0,76.1,14391.0,Xanomeline High Dose,Xan_Hi,2.0,80.0,65-80,2.0,YEARS,CAUCASIAN,1.0,M,34.2,>=30,17514.0,60.5,>=12,12.0,177.8,23.0,108.0,Y,Y,Y,Y,Y,Y
183,01-711-1012,CDISCPILOT01,ADSL,711,900,1012,19437.0,19451.0,19451.0,2013-04-03,19477.0,19480.0,2013-05-02,5.0,Y,ADVERSE EVENT,Y,Adverse Event,,27.0,Xanomeline High Dose,Xan_Hi,2.0,81.0,66.0,1782.0,Xanomeline High Dose,Xan_Hi,2.0,67.0,65-80,2.0,YEARS,CAUCASIAN,1.0,F,28.0,25-<30,18833.0,19.9,>=12,12.0,170.2,18.0,81.0,Y,Y,Y,N,N,N
184,01-711-1036,CDISCPILOT01,ADSL,711,900,1036,19194.0,19203.0,19203.0,2012-07-29,19399.0,19399.0,2013-02-10,12.0,,PROTOCOL COMPLETED,,Completed,,197.0,Placebo,Pbo,5.397605346934028e-79,5.397605346934028e-79,5.397605346934028e-79,5.397605346934028e-79,Placebo,Pbo,5.397605346934028e-79,70.0,65-80,2.0,YEARS,"AFRICAN DESCENT (NEGRO, BLACK)",2.0,M,23.4,<25,17961.0,40.5,>=12,9.0,172.0,23.0,69.2,Y,Y,Y,Y,Y,Y
185,01-711-1143,CDISCPILOT01,ADSL,711,900,1143,19447.0,19451.0,19451.0,2013-04-03,19508.0,19510.0,2013-06-01,9.0,Y,ADVERSE EVENT,Y,Adverse Event,,58.0,Xanomeline Low Dose,Xan_Lo,1.0,54.0,54.0,3132.0,Xanomeline Low Dose,Xan_Lo,1.0,76.0,65-80,2.0,YEARS,CAUCASIAN,1.0,F,24.3,<25,18746.0,23.100000000000005,>=12,12.0,163.1,23.0,64.6,Y,Y,Y,N,N,Y
186,01-711-1433,CDISCPILOT01,ADSL,711,900,1433,19381.0,19385.0,19385.0,2013-01-27,19394.0,19395.0,2013-02-06,4.0,Y,ADVERSE EVENT,Y,Adverse Event,,10.0,Xanomeline High Dose,Xan_Hi,2.0,81.0,54.0,540.0,Xanomeline High Dose,Xan_Hi,2.0,84.0,>80,3.0,YEARS,CAUCASIAN,1.0,F,20.9,<25,19025.0,11.7,<12,12.0,157.5,18.0,51.9,Y,Y,N,N,N,N
187,01-713-1043,CDISCPILOT01,ADSL,713,713,1043,19587.0,19616.0,19616.0,2013-09-15,19806.0,19806.0,2014-03-24,12.0,,PROTOCOL COMPLETED,,Completed,,191.0,Xanomeline Low Dose,Xan_Lo,1.0,54.0,54.0,10314.0,Xanomeline Low Dose,Xan_Lo,1.0,78.0,65-80,2.0,YEARS,CAUCASIAN,1.0,F,18.8,<25,18970.0,20.3,>=12,8.0,165.1,16.0,51.3,Y,Y,Y,Y,Y,Y
188,01-713-1073,CDISCPILOT01,ADSL,713,713,1073,19797.0,19812.0,19812.0,2014-03-30,20001.0,20001.0,2014-10-05,12.0,,PROTOCOL COMPLETED,,Completed,,190.0,Xanomeline Low Dose,Xan_Lo,1.0,54.0,54.0,10260.0,Xanomeline Low Dose,Xan_Lo,1.0,74.0,65-80,2.0,YEARS,"AFRICAN DESCENT (NEGRO, BLACK)",2.0,F,20.3,<25,19408.0,12.8,>=12,6.0,167.6,11.0,56.9,Y,Y,Y,Y,Y,Y
189,01-713-1106,CDISCPILOT01,ADSL,713,713,1106,19269.0,19297.0,19297.0,2012-10-31,19484.0,19484.0,2013-05-06,12.0,,PROTOCOL COMPLETED,,Completed,,188.0,Xanomeline High Dose,Xan_Hi,2.0,81.0,76.7,14418.0,Xanomeline High Dose,Xan_Hi,2.0,74.0,65-80,2.0,YEARS,CAUCASIAN,1.0,M,19.600000000000005,<25,18278.0,32.6,>=12,16.0,164.8,23.0,53.1,Y,Y,Y,Y,Y,Y
190,01-713-1141,CDISCPILOT01,ADSL,713,713,1141,19501.0,19509.0,19509.0,2013-05-31,19540.0,19576.0,2013-08-06,7.0,Y,ADVERSE EVENT,Y,Adverse Event,,32.0,Xanomeline High Dose,Xan_Hi,2.0,81.0,68.3,2187.0,Xanomeline High Dose,Xan_Hi,2.0,79.0,65-80,2.0,YEARS,CAUCASIAN,1.0,M,23.5,<25,17129.0,78.0,>=12,13.0,170.0,18.0,68.0,Y,Y,N,N,N,N
191,01-713-1179,CDISCPILOT01,ADSL,713,713,1179,19550.0,19579.0,19579.0,2013-08-09,19759.0,19759.0,2014-02-05,12.0,,PROTOCOL COMPLETED,,Completed,,181.0,Placebo,Pbo,5.397605346934028e-79,5.397605346934028e-79,5.397605346934028e-79,5.397605346934028e-79,Placebo,Pbo,5.397605346934028e-79,64.0,<65,1.0,YEARS,CAUCASIAN,1.0,F,20.3,<25,18751.0,26.3,>=12,12.0,165.1,21.0,55.3,Y,Y,Y,Y,Y,Y
192,01-713-1209,CDISCPILOT01,ADSL,713,713,1209,19494.0,19505.0,19505.0,2013-05-27,19684.0,19684.0,2013-11-22,12.0,,PROTOCOL COMPLETED,,Completed,,180.0,Xanomeline High Dose,Xan_Hi,2.0,81.0,77.0,13851.0,Xanomeline High Dose,Xan_Hi,2.0,77.0,65-80,2.0,YEARS,CAUCASIAN,1.0,F,19.2,<25,18457.0,34.1,>=12,12.0,165.1,23.0,52.2,Y,Y,Y,Y,Y,Y
193,01-713-1256,CDISCPILOT01,ADSL,713,713,1256,19246.0,19255.0,19255.0,2012-09-19,19442.0,19442.0,2013-03-25,12.0,,PROTOCOL COMPLETED,,Completed,,188.0,Placebo,Pbo,5.397605346934028e-79,5.397605346934028e-79,5.397605346934028e-79,5.397605346934028e-79,Placebo,Pbo,5.397605346934028e-79,71.0,65-80,2.0,YEARS,CAUCASIAN,1.0,M,23.7,<25,17936.0,43.1,>=12,16.0,180.3,13.0,77.1,Y,Y,Y,Y,Y,Y
194,01-713-1269,CDISCPILOT01,ADSL,713,713,1269,19737.0,19750.0,19750.0,2014-01-27,19932.0,19932.0,2014-07-28,12.0,,PROTOCOL COMPLETED,,Completed,,183.0,Placebo,Pbo,5.397605346934028e-79,5.397605346934028e-79,5.397605346934028e-79,5.397605346934028e-79,Placebo,Pbo,5.397605346934028e-79,73.0,65-80,2.0,YEARS,CAUCASIAN,1.0,M,21.9,<25,19073.0,21.8,>=12,16.0,185.4,23.0,75.3,Y,Y,Y,Y,Y,Y
195,01-713-1448,CDISCPILOT01,ADSL,713,713,1448,19728.0,19742.0,19742.0,2014-01-19,19859.0,19860.0,2014-05-17,10.0,Y,ADVERSE EVENT,Y,Adverse Event,,118.0,Xanomeline Low Dose,Xan_Lo,1.0,54.0,54.0,6372.0,Xanomeline Low Dose,Xan_Lo,1.0,71.0,65-80,2.0,YEARS,CAUCASIAN,1.0,F,25.5,25-<30,17631.0,68.9,>=12,13.0,175.3,23.0,78.5,Y,Y,Y,N,Y,Y
196,01-714-1035,CDISCPILOT01,ADSL,714,900,1035,19816.0,19830.0,19830.0,2014-04-17,20012.0,20012.0,2014-10-16,12.0,,PROTOCOL COMPLETED,,Completed,,183.0,Placebo,Pbo,5.397605346934028e-79,5.397605346934028e-79,5.397605346934028e-79,5.397605346934028e-79,Placebo,Pbo,5.397605346934028e-79,88.0,>80,3.0,YEARS,CAUCASIAN,1.0,F,24.600000000000005,<25,18719.0,36.1,>=12,12.0,148.6,17.0,54.4,Y,Y,Y,Y,Y,Y
197,01-714-1068,CDISCPILOT01,ADSL,714,900,1068,19570.0,19578.0,19578.0,2013-08-08,19639.0,19647.0,2013-10-16,9.0,Y,ADVERSE EVENT,Y,Adverse Event,,62.0,Xanomeline Low Dose,Xan_Lo,1.0,54.0,54.0,3348.0,Xanomeline Low Dose,Xan_Lo,1.0,79.0,65-80,2.0,YEARS,CAUCASIAN,1.0,F,23.0,<25,19198.0,12.3,>=12,9.0,153.7,18.0,54.4,Y,Y,Y,N,N,Y
198,01-714-1195,CDISCPILOT01,ADSL,714,900,1195,19464.0,19474.0,19474.0,2013-04-26,19654.0,19654.0,2013-10-23,12.0,,PROTOCOL COMPLETED,,Completed,,181.0,Xanomeline Low Dose,Xan_Lo,1.0,54.0,54.0,9774.0,Xanomeline Low Dose,Xan_Lo,1.0,75.0,65-80,2.0,YEARS,CAUCASIAN,1.0,M,28.7,25-<30,18747.0,23.600000000000005,>=12,16.0,172.7,19.0,85.7,Y,Y,Y,Y,Y,Y
199,01-714-1288,CDISCPILOT01,ADSL,714,900,1288,19686.0,19696.0,19696.0,2013-12-04,19891.0,19891.0,2014-06-17,12.0,,PROTOCOL COMPLETED,,Completed,,196.0,Xanomeline High Dose,Xan_Hi,2.0,81.0,76.2,14931.0,Xanomeline High Dose,Xan_Hi,2.0,77.0,65-80,2.0,YEARS,"AFRICAN DESCENT (NEGRO, BLACK)",2.0,M,18.7,<25,18212.0,48.5,>=12,6.0,162.6,19.0,49.4,Y,Y,Y,Y,Y,Y
200,01-714-1375,CDISCPILOT01,ADSL,714,900,1375,19412.0,19415.0,19415.0,2013-02-26,19608.0,19608.0,2013-09-07,12.0,,PROTOCOL COMPLETED,,Completed,,194.0,Placebo,Pbo,5.397605346934028e-79,5.397605346934028e-79,5.397605346934028e-79,5.397605346934028e-79,Placebo,Pbo,5.397605346934028e-79,78.0,65-80,2.0,YEARS,CAUCASIAN,1.0,F,25.600000000000005,25-<30,17572.0,60.5,>=12,10.0,149.9,17.0,57.6,Y,Y,Y,Y,Y,Y
201,01-714-1425,CDISCPILOT01,ADSL,714,900,1425,19581.0,19585.0,19585.0,2013-08-15,19589.0,19592.0,2013-08-22,4.0,Y,SPONSOR DECISION (STUDY OR PATIENT DISCONTINUED BY THE SPONSOR),,Sponsor Decision,,5.0,Xanomeline High Dose,Xan_Hi,2.0,81.0,54.0,270.0,Xanomeline High Dose,Xan_Hi,2.0,81.0,>80,3.0,YEARS,CAUCASIAN,1.0,M,29.0,25-<30,18473.0,36.4,>=12,16.0,177.8,22.0,91.6,Y,Y,Y,N,N,N
202,01-715-1085,CDISCPILOT01,ADSL,715,900,1085,19392.0,19405.0,19405.0,2013-02-16,19588.0,19588.0,2013-08-18,12.0,,PROTOCOL COMPLETED,,Completed,,184.0,Xanomeline Low Dose,Xan_Lo,1.0,54.0,54.0,9936.0,Xanomeline Low Dose,Xan_Lo,1.0,77.0,65-80,2.0,YEARS,CAUCASIAN,1.0,F,21.8,<25,18476.0,30.100000000000005,>=12,14.0,162.6,23.0,57.6,Y,Y,Y,Y,Y,Y
203,01-715-1107,CDISCPILOT01,ADSL,715,900,1107,19401.0,19415.0,19415.0,2013-02-26,19485.0,19491.0,2013-05-13,9.0,Y,ADVERSE EVENT,Y,Adverse Event,,71.0,Xanomeline Low Dose,Xan_Lo,1.0,54.0,54.0,3834.0,Xanomeline Low Dose,Xan_Lo,1.0,65.0,65-80,2.0,YEARS,CAUCASIAN,1.0,M,23.3,<25,18892.0,16.8,>=12,12.0,172.7,23.0,69.4,Y,Y,Y,N,N,Y
204,01-715-1155,CDISCPILOT01,ADSL,715,900,1155,19691.0,19705.0,19705.0,2013-12-13,19748.0,19839.0,2014-04-26,7.0,Y,PERSONAL CONFLICT OR OTHER PATIENT/CAREGIVER DECISION,,Withdrew Consent,,44.0,Placebo,Pbo,5.397605346934028e-79,5.397605346934028e-79,5.397605346934028e-79,5.397605346934028e-79,Placebo,Pbo,5.397605346934028e-79,59.0,<65,1.0,YEARS,CAUCASIAN,1.0,F,23.3,<25,18605.0,35.7,>=12,12.0,165.1,10.0,63.5,Y,Y,N,N,N,N
205,01-715-1207,CDISCPILOT01,ADSL,715,900,1207,19309.0,19315.0,19315.0,2012-11-18,19505.0,19510.0,2013-06-01,12.0,,PROTOCOL COMPLETED,,Completed,,191.0,Placebo,Pbo,5.397605346934028e-79,5.397605346934028e-79,5.397605346934028e-79,5.397605346934028e-79,Placebo,Pbo,5.397605346934028e-79,78.0,65-80,2.0,YEARS,CAUCASIAN,1.0,F,21.3,<25,18358.0,31.3,>=12,7.0,152.4,20.0,49.4,Y,Y,Y,Y,Y,Y
206,01-715-1319,CDISCPILOT01,ADSL,715,900,1319,19392.0,19406.0,19406.0,2013-02-17,19422.0,19435.0,2013-03-18,5.0,Y,PERSONAL CONFLICT OR OTHER PATIENT/CAREGIVER DECISION,,Withdrew Consent,,17.0,Xanomeline High Dose,Xan_Hi,2.0,81.0,57.2,972.0,Xanomeline High Dose,Xan_Hi,2.0,65.0,65-80,2.0,YEARS,CAUCASIAN,1.0,M,25.4,25-<30,17390.0,65.8,>=12,13.0,172.7,12.0,75.8,Y,Y,Y,N,N,N
207,01-715-1321,CDISCPILOT01,ADSL,715,900,1321,19760.0,19765.0,19765.0,2014-02-11,19834.0,19835.0,2014-04-22,9.0,Y,ADVERSE EVENT,Y,Adverse Event,,70.0,Xanomeline High Dose,Xan_Hi,2.0,81.0,74.8,5238.0,Xanomeline High Dose,Xan_Hi,2.0,75.0,65-80,2.0,YEARS,CAUCASIAN,1.0,F,22.7,<25,18596.0,38.3,>=12,12.0,162.6,23.0,59.9,Y,Y,Y,N,N,Y
208,01-715-1397,CDISCPILOT01,ADSL,715,900,1397,19437.0,19451.0,19451.0,2013-04-03,19633.0,19634.0,2013-10-03,12.0,,PROTOCOL COMPLETED,,Completed,,183.0,Placebo,Pbo,5.397605346934028e-79,5.397605346934028e-79,5.397605346934028e-79,5.397605346934028e-79,Placebo,Pbo,5.397605346934028e-79,76.0,65-80,2.0,YEARS,CAUCASIAN,1.0,F,28.9,25-<30,19129.0,10.2,<12,11.0,152.4,22.0,67.1,Y,Y,Y,Y,Y,Y
209,01-715-1405,CDISCPILOT01,ADSL,715,900,1405,19536.0,19545.0,19545.0,2013-07-06,19546.0,19552.0,2013-07-13,4.0,Y,ADVERSE EVENT,Y,Adverse Event,,2.0,Xanomeline Low Dose,Xan_Lo,1.0,54.0,54.0,108.0,Xanomeline Low Dose,Xan_Lo,1.0,69.0,65-80,2.0,YEARS,CAUCASIAN,1.0,M,21.5,<25,16122.0,112.2,>=12,16.0,180.3,10.0,69.9,Y,Y,Y,N,N,N
210,01-716-1024,CDISCPILOT01,ADSL,716,716,1024,19180.0,19183.0,19183.0,2012-07-09,19378.0,19378.0,2013-01-20,12.0,,PROTOCOL COMPLETED,,Completed,,196.0,Placebo,Pbo,5.397605346934028e-79,5.397605346934028e-79,5.397605346934028e-79,5.397605346934028e-79,Placebo,Pbo,5.397605346934028e-79,87.0,>80,3.0,YEARS,CAUCASIAN,1.0,F,22.7,<25,18962.0,7.2,<12,12.0,154.9,22.0,54.4,Y,Y,Y,Y,Y,Y
211,01-716-1026,CDISCPILOT01,ADSL,716,716,1026,19805.0,19815.0,19815.0,2014-04-02,20012.0,20012.0,2014-10-16,12.0,,PROTOCOL COMPLETED,,Completed,,198.0,Placebo,Pbo,5.397605346934028e-79,5.397605346934028e-79,5.397605346934028e-79,5.397605346934028e-79,Placebo,Pbo,5.397605346934028e-79,73.0,65-80,2.0,YEARS,CAUCASIAN,1.0,F,33.3,>=30,18507.0,42.7,>=12,12.0,154.9,11.0,79.8,Y,Y,Y,Y,Y,Y
212,01-716-1030,CDISCPILOT01,ADSL,716,716,1030,19717.0,19720.0,19720.0,2013-12-28,19725.0,19733.0,2014-01-10,4.0,Y,PERSONAL CONFLICT OR OTHER PATIENT/CAREGIVER DECISION,,Withdrew Consent,,6.0,Xanomeline High Dose,Xan_Hi,2.0,81.0,54.0,324.0,Xanomeline High Dose,Xan_Hi,2.0,83.0,>80,3.0,YEARS,CAUCASIAN,1.0,F,33.2,>=30,18876.0,27.7,>=12,12.0,150.6,16.0,75.3,Y,Y,Y,N,N,N
213,01-716-1044,CDISCPILOT01,ADSL,716,716,1044,19468.0,19475.0,19475.0,2013-04-27,19665.0,19665.0,2013-11-03,12.0,,PROTOCOL COMPLETED,,Completed,,191.0,Placebo,Pbo,5.397605346934028e-79,5.397605346934028e-79,5.397605346934028e-79,5.397605346934028e-79,Placebo,Pbo,5.397605346934028e-79,74.0,65-80,2.0,YEARS,CAUCASIAN,1.0,M,28.9,25-<30,18707.0,25.0,>=12,12.0,172.7,14.0,86.2,Y,Y,Y,Y,Y,Y
214,01-716-1063,CDISCPILOT01,ADSL,716,716,1063,19484.0,19487.0,19487.0,2013-05-09,19595.0,19598.0,2013-08-28,10.0,Y,ADVERSE EVENT,Y,Adverse Event,,109.0,Xanomeline Low Dose,Xan_Lo,1.0,54.0,54.0,5886.0,Xanomeline Low Dose,Xan_Lo,1.0,80.0,65-80,2.0,YEARS,CAUCASIAN,1.0,M,28.4,25-<30,15796.0,121.2,>=12,8.0,160.0,17.0,72.6,Y,Y,Y,N,Y,Y
215,01-716-1071,CDISCPILOT01,ADSL,716,716,1071,19512.0,19517.0,19517.0,2013-06-08,19571.0,19571.0,2013-08-01,8.0,Y,ADVERSE EVENT,Y,Adverse Event,,55.0,Xanomeline High Dose,Xan_Hi,2.0,81.0,73.6,4050.0,Xanomeline High Dose,Xan_Hi,2.0,78.0,65-80,2.0,YEARS,CAUCASIAN,1.0,F,32.0,>=30,18597.0,30.100000000000005,>=12,12.0,154.9,20.0,76.7,Y,Y,Y,N,N,Y
216,01-716-1094,CDISCPILOT01,ADSL,716,716,1094,19343.0,19346.0,19346.0,2012-12-19,19382.0,19384.0,2013-01-26,7.0,Y,ADVERSE EVENT,Y,Adverse Event,,37.0,Xanomeline Low Dose,Xan_Lo,1.0,54.0,54.0,1998.0,Xanomeline Low Dose,Xan_Lo,1.0,82.0,>80,3.0,YEARS,CAUCASIAN,1.0,M,28.3,25-<30,17528.0,59.7,>=12,8.0,168.9,11.0,80.7,Y,Y,Y,N,N,N
217,01-716-1103,CDISCPILOT01,ADSL,716,716,1103,19800.0,19802.0,19802.0,2014-03-20,19986.0,19986.0,2014-09-20,12.0,,PROTOCOL COMPLETED,,Completed,,185.0,Xanomeline Low Dose,Xan_Lo,1.0,54.0,54.0,9990.0,Xanomeline Low Dose,Xan_Lo,1.0,79.0,65-80,2.0,YEARS,CAUCASIAN,1.0,M,25.600000000000005,25-<30,18815.0,32.4,>=12,8.0,165.1,22.0,69.9,Y,Y,Y,Y,Y,Y
218,01-716-1108,CDISCPILOT01,ADSL,716,716,1108,19393.0,19401.0,19401.0,2013-02-12,19580.0,19580.0,2013-08-10,12.0,,PROTOCOL COMPLETED,,Completed,,180.0,Placebo,Pbo,5.397605346934028e-79,5.397605346934028e-79,5.397605346934028e-79,5.397605346934028e-79,Placebo,Pbo,5.397605346934028e-79,86.0,>80,3.0,YEARS,CAUCASIAN,1.0,F,26.0,25-<30,19037.0,11.7,<12,12.0,142.2,21.0,52.6,Y,Y,Y,Y,Y,Y
219,01-716-1151,CDISCPILOT01,ADSL,716,716,1151,19381.0,19390.0,19390.0,2013-02-01,19489.0,19516.0,2013-06-07,10.0,Y,ADVERSE EVENT,Y,Adverse Event,,100.0,Xanomeline Low Dose,Xan_Lo,1.0,54.0,54.0,5400.0,Xanomeline Low Dose,Xan_Lo,1.0,83.0,>80,3.0,YEARS,CAUCASIAN,1.0,F,19.7,<25,18338.0,34.3,>=12,18.0,152.4,22.0,45.8,Y,Y,Y,N,Y,Y
220,01-716-1157,CDISCPILOT01,ADSL,716,716,1157,19624.0,19633.0,19633.0,2013-10-02,19817.0,19818.0,2014-04-05,12.0,,PROTOCOL COMPLETED,,Completed,,185.0,Xanomeline Low Dose,Xan_Lo,1.0,54.0,54.0,9990.0,Xanomeline Low Dose,Xan_Lo,1.0,85.0,>80,3.0,YEARS,CAUCASIAN,1.0,M,23.2,<25,17632.0,65.5,>=12,14.0,160.0,20.0,59.4,Y,Y,Y,Y,Y,Y
221,01-716-1160,CDISCPILOT01,ADSL,716,716,1160,19440.0,19453.0,19453.0,2013-04-05,19642.0,19642.0,2013-10-11,12.0,,PROTOCOL COMPLETED,,Completed,,190.0,Placebo,Pbo,5.397605346934028e-79,5.397605346934028e-79,5.397605346934028e-79,5.397605346934028e-79,Placebo,Pbo,5.397605346934028e-79,83.0,>80,3.0,YEARS,CAUCASIAN,1.0,F,24.100000000000005,<25,18782.0,21.7,>=12,12.0,157.5,23.0,59.9,Y,Y,Y,Y,Y,Y
222,01-716-1167,CDISCPILOT01,ADSL,716,716,1167,19266.0,19274.0,19274.0,2012-10-08,19460.0,19461.0,2013-04-13,12.0,,PROTOCOL COMPLETED,,Completed,,187.0,Xanomeline Low Dose,Xan_Lo,1.0,54.0,54.0,10098.0,Xanomeline Low Dose,Xan_Lo,1.0,68.0,65-80,2.0,YEARS,CAUCASIAN,1.0,M,24.8,<25,18996.0,8.9,<12,12.0,158.8,19.0,62.6,Y,Y,Y,Y,Y,Y
223,01-716-1177,CDISCPILOT01,ADSL,716,716,1177,19964.0,19968.0,19968.0,2014-09-02,20152.0,20152.0,2015-03-05,12.0,,PROTOCOL COMPLETED,,Completed,,185.0,Placebo,Pbo,5.397605346934028e-79,5.397605346934028e-79,5.397605346934028e-79,5.397605346934028e-79,Placebo,Pbo,5.397605346934028e-79,72.0,65-80,2.0,YEARS,CAUCASIAN,1.0,M,27.3,25-<30,19456.0,16.7,>=12,12.0,177.8,21.0,86.2,Y,Y,Y,Y,Y,Y
224,01-716-1189,CDISCPILOT01,ADSL,716,716,1189,19273.0,19275.0,19275.0,2012-10-09,19416.0,19420.0,2013-03-03,11.0,Y,ADVERSE EVENT,Y,Adverse Event,,142.0,Xanomeline High Dose,Xan_Hi,2.0,81.0,78.0,11070.0,Xanomeline High Dose,Xan_Hi,2.0,81.0,>80,3.0,YEARS,CAUCASIAN,1.0,M,27.4,25-<30,17763.0,49.6,>=12,9.0,163.8,21.0,73.5,Y,Y,Y,N,Y,Y
225,01-716-1229,CDISCPILOT01,ADSL,716,716,1229,19403.0,19409.0,19409.0,2013-02-20,19448.0,19450.0,2013-04-02,7.0,Y,ADVERSE EVENT,Y,Adverse Event,,40.0,Xanomeline High Dose,Xan_Hi,2.0,81.0,70.9,2835.0,Xanomeline High Dose,Xan_Hi,2.0,73.0,65-80,2.0,YEARS,CAUCASIAN,1.0,F,24.600000000000005,<25,18848.0,18.3,>=12,16.0,161.3,22.0,64.0,Y,Y,Y,N,N,N
226,01-716-1298,CDISCPILOT01,ADSL,716,716,1298,19452.0,19456.0,19456.0,2013-04-08,19537.0,19545.0,2013-07-06,9.0,Y,ADVERSE EVENT,Y,Adverse Event,,82.0,Xanomeline Low Dose,Xan_Lo,1.0,54.0,54.0,4428.0,Xanomeline Low Dose,Xan_Lo,1.0,76.0,65-80,2.0,YEARS,CAUCASIAN,1.0,F,29.4,25-<30,17667.0,58.7,>=12,12.0,156.2,11.0,71.7,Y,Y,Y,N,N,Y
227,01-716-1308,CDISCPILOT01,ADSL,716,716,1308,19593.0,19598.0,19598.0,2013-08-28,19638.0,19638.0,2013-10-07,7.0,Y,PERSONAL CONFLICT OR OTHER PATIENT/CAREGIVER DECISION,,Withdrew Consent,,41.0,Placebo,Pbo,5.397605346934028e-79,5.397605346934028e-79,5.397605346934028e-79,5.397605346934028e-79,Placebo,Pbo,5.397605346934028e-79,76.0,65-80,2.0,YEARS,CAUCASIAN,1.0,F,23.600000000000005,<25,18218.0,45.2,>=12,13.0,157.5,13.0,58.5,Y,Y,Y,N,N,N
228,01-716-1311,CDISCPILOT01,ADSL,716,716,1311,19851.0,19857.0,19857.0,2014-05-14,19987.0,19996.0,2014-09-30,11.0,Y,PERSONAL CONFLICT OR OTHER PATIENT/CAREGIVER DECISION,,Withdrew Consent,,131.0,Xanomeline Low Dose,Xan_Lo,1.0,54.0,54.0,7074.0,Xanomeline Low Dose,Xan_Lo,1.0,78.0,65-80,2.0,YEARS,CAUCASIAN,1.0,M,27.100000000000005,25-<30,15872.0,130.8,>=12,14.0,172.7,11.0,80.7,Y,Y,Y,N,Y,Y
229,01-716-1364,CDISCPILOT01,ADSL,716,716,1364,19536.0,19543.0,19543.0,2013-07-04,19732.0,19732.0,2014-01-09,12.0,,PROTOCOL COMPLETED,,Completed,,190.0,Xanomeline High Dose,Xan_Hi,2.0,81.0,76.6,14553.0,Xanomeline High Dose,Xan_Hi,2.0,84.0,>80,3.0,YEARS,CAUCASIAN,1.0,F,20.4,<25,18484.0,34.6,>=12,12.0,162.6,17.0,54.0,Y,Y,Y,Y,Y,Y
230,01-716-1373,CDISCPILOT01,ADSL,716,716,1373,19321.0,19341.0,19341.0,2012-12-14,19416.0,19417.0,2013-02-28,9.0,Y,ADVERSE EVENT,Y,Adverse Event,,76.0,Xanomeline High Dose,Xan_Hi,2.0,81.0,75.0,5697.0,Xanomeline High Dose,Xan_Hi,2.0,74.0,65-80,2.0,YEARS,CAUCASIAN,1.0,M,32.0,>=30,18038.0,42.2,>=12,16.0,147.3,23.0,69.4,Y,Y,Y,N,N,Y
231,01-716-1418,CDISCPILOT01,ADSL,716,716,1418,19475.0,19483.0,19483.0,2013-05-05,19682.0,19682.0,2013-11-20,12.0,,PROTOCOL COMPLETED,,Completed,,200.0,Xanomeline High Dose,Xan_Hi,2.0,81.0,77.1,15417.0,Xanomeline High Dose,Xan_Hi,2.0,80.0,65-80,2.0,YEARS,CAUCASIAN,1.0,F,25.3,25-<30,18384.0,35.9,>=12,8.0,165.1,20.0,69.0,Y,Y,Y,Y,Y,Y
232,01-716-1441,CDISCPILOT01,ADSL,716,716,1441,19736.0,19745.0,19745.0,2014-01-22,19926.0,19926.0,2014-07-22,12.0,,PROTOCOL COMPLETED,,Completed,,182.0,Placebo,Pbo,5.397605346934028e-79,5.397605346934028e-79,5.397605346934028e-79,5.397605346934028e-79,Placebo,Pbo,5.397605346934028e-79,85.0,>80,3.0,YEARS,CAUCASIAN,1.0,M,27.5,25-<30,18407.0,43.7,>=12,10.0,144.8,22.0,57.6,Y,Y,Y,Y,Y,Y
233,01-716-1447,CDISCPILOT01,ADSL,716,716,1447,19702.0,19708.0,19708.0,2013-12-16,19891.0,19891.0,2014-06-17,12.0,,PROTOCOL COMPLETED,,Completed,,184.0,Xanomeline High Dose,Xan_Hi,2.0,81.0,77.2,14202.0,Xanomeline High Dose,Xan_Hi,2.0,72.0,65-80,2.0,YEARS,CAUCASIAN,1.0,F,24.2,<25,18397.0,42.9,>=12,14.0,149.9,22.0,54.4,Y,Y,Y,Y,Y,Y
234,01-717-1004,CDISCPILOT01,ADSL,717,900,1004,19724.0,19737.0,19737.0,2014-01-14,19920.0,19920.0,2014-07-16,12.0,,PROTOCOL COMPLETED,,Completed,,184.0,Xanomeline Low Dose,Xan_Lo,1.0,54.0,54.0,9936.0,Xanomeline Low Dose,Xan_Lo,1.0,80.0,65-80,2.0,YEARS,CAUCASIAN,1.0,F,30.2,>=30,18390.0,43.9,>=12,15.0,135.9,13.0,55.8,Y,Y,Y,Y,Y,Y
235,01-717-1109,CDISCPILOT01,ADSL,717,900,1109,19743.0,19750.0,19750.0,2014-01-27,19932.0,19932.0,2014-07-28,12.0,,PROTOCOL COMPLETED,,Completed,,183.0,Xanomeline High Dose,Xan_Hi,2.0,81.0,77.3,14148.0,Xanomeline High Dose,Xan_Hi,2.0,84.0,>80,3.0,YEARS,CAUCASIAN,1.0,M,13.7,<25,19063.0,22.4,>=12,17.0,180.3,20.0,44.5,Y,Y,Y,Y,Y,Y
236,01-717-1174,CDISCPILOT01,ADSL,717,900,1174,19374.0,19380.0,19380.0,2013-01-22,19563.0,19563.0,2013-07-24,12.0,,PROTOCOL COMPLETED,,Completed,,184.0,Xanomeline High Dose,Xan_Hi,2.0,81.0,76.5,14067.0,Xanomeline High Dose,Xan_Hi,2.0,73.0,65-80,2.0,YEARS,CAUCASIAN,1.0,M,24.2,<25,18507.0,28.5,>=12,16.0,167.6,22.0,68.0,Y,Y,Y,Y,Y,Y
237,01-717-1201,CDISCPILOT01,ADSL,717,900,1201,19704.0,19711.0,19711.0,2013-12-19,19775.0,19775.0,2014-02-21,8.0,Y,"LACK OF EFFICACY, PATIENT CAREGIVER PERCEPTION",,Lack of Efficacy,,65.0,Placebo,Pbo,5.397605346934028e-79,5.397605346934028e-79,5.397605346934028e-79,5.397605346934028e-79,Placebo,Pbo,5.397605346934028e-79,85.0,>80,3.0,YEARS,CAUCASIAN,1.0,F,26.600000000000005,25-<30,18709.0,32.7,>=12,12.0,160.0,23.0,68.0,Y,Y,Y,N,N,Y
238,01-717-1344,CDISCPILOT01,ADSL,717,900,1344,19724.0,19734.0,19734.0,2014-01-11,19796.0,19796.0,2014-03-14,8.0,Y,"LACK OF EFFICACY, PATIENT CAREGIVER PERCEPTION",,Lack of Efficacy,,63.0,Placebo,Pbo,5.397605346934028e-79,5.397605346934028e-79,5.397605346934028e-79,5.397605346934028e-79,Placebo,Pbo,5.397605346934028e-79,64.0,<65,1.0,YEARS,CAUCASIAN,1.0,F,21.7,<25,17785.0,63.7,>=12,16.0,163.5,21.0,58.1,Y,Y,Y,N,N,Y
239,01-717-1357,CDISCPILOT01,ADSL,717,900,1357,19469.0,19479.0,19479.0,2013-05-01,19645.0,19651.0,2013-10-20,12.0,Y,SPONSOR DECISION (STUDY OR PATIENT DISCONTINUED BY THE SPONSOR),,Sponsor Decision,,167.0,Xanomeline High Dose,Xan_Hi,2.0,81.0,78.6,13122.0,Xanomeline High Dose,Xan_Hi,2.0,77.0,65-80,2.0,YEARS,CAUCASIAN,1.0,M,24.7,<25,18313.0,38.0,>=12,14.0,181.6,12.0,81.3,Y,Y,Y,Y,Y,Y
240,01-717-1446,CDISCPILOT01,ADSL,717,900,1446,19590.0,19602.0,19602.0,2013-09-01,19785.0,19786.0,2014-03-04,12.0,,PROTOCOL COMPLETED,,Completed,,184.0,Xanomeline Low Dose,Xan_Lo,1.0,54.0,54.0,9936.0,Xanomeline Low Dose,Xan_Lo,1.0,75.0,65-80,2.0,YEARS,CAUCASIAN,1.0,F,19.3,<25,18303.0,42.3,>=12,12.0,156.2,21.0,47.2,Y,Y,Y,Y,Y,Y
241,01-718-1066,CDISCPILOT01,ADSL,718,718,1066,19537.0,19546.0,19546.0,2013-07-07,19555.0,19569.0,2013-07-30,4.0,Y,ADVERSE EVENT,Y,Adverse Event,,10.0,Xanomeline Low Dose,Xan_Lo,1.0,54.0,54.0,540.0,Xanomeline Low Dose,Xan_Lo,1.0,79.0,65-80,2.0,YEARS,CAUCASIAN,1.0,F,20.0,<25,18780.0,24.9,>=12,14.0,158.8,20.0,50.4,Y,Y,Y,N,N,N
242,01-718-1079,CDISCPILOT01,ADSL,718,718,1079,19247.0,19255.0,19255.0,2012-09-19,19297.0,19303.0,2012-11-06,7.0,Y,ADVERSE EVENT,Y,Adverse Event,,43.0,Xanomeline Low Dose,Xan_Lo,1.0,54.0,54.0,2322.0,Xanomeline Low Dose,Xan_Lo,1.0,67.0,65-80,2.0,YEARS,CAUCASIAN,1.0,F,20.0,<25,16614.0,86.5,>=12,16.0,158.8,17.0,50.4,Y,Y,Y,N,N,N
243,01-718-1101,CDISCPILOT01,ADSL,718,718,1101,19390.0,19406.0,19406.0,2013-02-17,19570.0,19572.0,2013-08-02,12.0,Y,SPONSOR DECISION (STUDY OR PATIENT DISCONTINUED BY THE SPONSOR),,Sponsor Decision,,165.0,Xanomeline High Dose,Xan_Hi,2.0,81.0,78.5,12960.0,Xanomeline High Dose,Xan_Hi,2.0,82.0,>80,3.0,YEARS,"AFRICAN DESCENT (NEGRO, BLACK)",2.0,M,23.2,<25,17636.0,57.7,>=12,12.0,186.2,13.0,80.3,Y,Y,Y,Y,Y,Y
244,01-718-1139,CDISCPILOT01,ADSL,718,718,1139,19481.0,19497.0,19497.0,2013-05-19,19679.0,19679.0,2013-11-17,12.0,,PROTOCOL COMPLETED,,Completed,,183.0,Placebo,Pbo,5.397605346934028e-79,5.397605346934028e-79,5.397605346934028e-79,5.397605346934028e-79,Placebo,Pbo,5.397605346934028e-79,77.0,65-80,2.0,YEARS,CAUCASIAN,1.0,M,22.4,<25,17620.0,61.2,>=12,14.0,171.5,16.0,65.8,Y,Y,Y,Y,Y,Y
245,01-718-1150,CDISCPILOT01,ADSL,718,718,1150,19370.0,19377.0,19377.0,2013-01-19,19568.0,19570.0,2013-07-31,12.0,,PROTOCOL COMPLETED,,Completed,,192.0,Placebo,Pbo,5.397605346934028e-79,5.397605346934028e-79,5.397605346934028e-79,5.397605346934028e-79,Placebo,Pbo,5.397605346934028e-79,73.0,65-80,2.0,YEARS,CAUCASIAN,1.0,F,22.5,<25,19063.0,10.1,<12,16.0,156.2,22.0,54.9,Y,Y,Y,Y,Y,Y
246,01-718-1170,CDISCPILOT01,ADSL,718,718,1170,19595.0,19617.0,19617.0,2013-09-16,19643.0,19665.0,2013-11-03,5.0,Y,ADVERSE EVENT,Y,Adverse Event,,27.0,Xanomeline Low Dose,Xan_Lo,1.0,54.0,54.0,1458.0,Xanomeline Low Dose,Xan_Lo,1.0,80.0,65-80,2.0,YEARS,CAUCASIAN,1.0,F,21.8,<25,19230.0,12.0,>=12,12.0,162.6,19.0,57.6,Y,Y,Y,N,N,N
247,01-718-1172,CDISCPILOT01,ADSL,718,718,1172,19616.0,19622.0,19622.0,2013-09-21,19691.0,19691.0,2013-11-29,9.0,Y,PERSONAL CONFLICT OR OTHER PATIENT/CAREGIVER DECISION,,Withdrew Consent,,70.0,Placebo,Pbo,5.397605346934028e-79,5.397605346934028e-79,5.397605346934028e-79,5.397605346934028e-79,Placebo,Pbo,5.397605346934028e-79,74.0,65-80,2.0,YEARS,CAUCASIAN,1.0,M,21.9,<25,18901.0,23.5,>=12,21.0,174.0,10.0,66.2,Y,Y,Y,N,N,Y
248,01-718-1250,CDISCPILOT01,ADSL,718,718,1250,19591.0,19622.0,19622.0,2013-09-21,19754.0,19762.0,2014-02-08,11.0,Y,ADVERSE EVENT,Y,Adverse Event,,133.0,Xanomeline Low Dose,Xan_Lo,1.0,54.0,54.0,7182.0,Xanomeline Low Dose,Xan_Lo,1.0,82.0,>80,3.0,YEARS,"HISPANIC (MEXICAN - AMERICAN, MEXICO, CENTRAL AND SOUTH AMERICA)",5.0,F,23.600000000000005,<25,17764.0,60.1,>=12,21.0,157.5,18.0,58.5,Y,Y,Y,N,Y,Y
249,01-718-1254,CDISCPILOT01,ADSL,718,718,1254,19537.0,19549.0,19549.0,2013-07-10,19732.0,19732.0,2014-01-09,12.0,,PROTOCOL COMPLETED,,Completed,,184.0,Xanomeline Low Dose,Xan_Lo,1.0,54.0,54.0,9936.0,Xanomeline Low Dose,Xan_Lo,1.0,78.0,65-80,2.0,YEARS,"HISPANIC (MEXICAN - AMERICAN, MEXICO, CENTRAL AND SOUTH AMERICA)",5.0,M,28.3,25-<30,18882.0,21.600000000000005,>=12,18.0,170.2,16.0,82.1,Y,Y,Y,Y,Y,Y
250,01-718-1328,CDISCPILOT01,ADSL,718,718,1328,19386.0,19390.0,19390.0,2013-02-01,19466.0,19479.0,2013-05-01,9.0,Y,PERSONAL CONFLICT OR OTHER PATIENT/CAREGIVER DECISION,,Withdrew Consent,,77.0,Xanomeline High Dose,Xan_Hi,2.0,81.0,76.1,5859.0,Xanomeline High Dose,Xan_Hi,2.0,86.0,>80,3.0,YEARS,CAUCASIAN,1.0,M,21.9,<25,18273.0,36.6,>=12,12.0,170.2,13.0,63.5,Y,Y,Y,N,N,Y
251,01-718-1355,CDISCPILOT01,ADSL,718,718,1355,19401.0,19417.0,19417.0,2013-02-28,19599.0,19599.0,2013-08-29,12.0,,PROTOCOL COMPLETED,,Completed,,183.0,Placebo,Pbo,5.397605346934028e-79,5.397605346934028e-79,5.397605346934028e-79,5.397605346934028e-79,Placebo,Pbo,5.397605346934028e-79,79.0,65-80,2.0,YEARS,CAUCASIAN,1.0,M,20.8,<25,17871.0,50.3,>=12,15.0,167.6,16.0,58.5,Y,Y,Y,Y,Y,Y
252,01-718-1371,CDISCPILOT01,ADSL,718,718,1371,19459.0,19474.0,19474.0,2013-04-26,19571.0,19578.0,2013-08-08,9.0,Y,ADVERSE EVENT,Y,Adverse Event,,98.0,Xanomeline High Dose,Xan_Hi,2.0,81.0,77.4,7587.0,Xanomeline High Dose,Xan_Hi,2.0,69.0,65-80,2.0,YEARS,CAUCASIAN,1.0,F,27.8,25-<30,19393.0,2.2,<12,10.0,154.9,16.0,66.7,Y,Y,Y,N,N,Y
253,01-718-1427,CDISCPILOT01,ADSL,718,718,1427,19340.0,19344.0,19344.0,2012-12-17,19400.0,19407.0,2013-02-18,8.0,Y,"LACK OF EFFICACY, PATIENT CAREGIVER PERCEPTION",,Lack of Efficacy,,57.0,Xanomeline High Dose,Xan_Hi,2.0,81.0,73.9,4212.0,Xanomeline High Dose,Xan_Hi,2.0,74.0,65-80,2.0,YEARS,"AFRICAN DESCENT (NEGRO, BLACK)",2.0,F,20.5,<25,18385.0,31.4,>=12,16.0,158.8,19.0,51.7,Y,Y,Y,N,N,Y
