,STUDYID,DOMAIN,ARMCD,ARM,TAETORD,ETCD,ELEMENT,TABRANCH,TATRANS,EPOCH,USUBJID
0,ABCD1234,TA,BLD,Blinded,1.0,SCRN,Screening,,,SCREENING,
1,ABCD1234,TA,BLD,Blinded,2.0,BLD,Blinded,,,BLINDED TREATMENT,
2,ABCD1234,TA,BLD,Blinded,3.0,TAPER,Taper,,,BLINDED TAPER,
3,ABCD1234,TA,BLD,Blinded,4.0,TRTAOLE,GWP42003 OLE,,,OPEN LABEL TREATMENT,
4,ABCD1234,TA,BLD,Blinded,5.0,TAPEROLE,Taper OLE,,,OPEN LABEL TAPER,
5,ABCD1234,TA,BLD,Blinded,6.0,FU,Follow-up,,,FOLLOW-UP,
