1,AE,STUDYID,Study Identifier,text,8,,,Yes,,Protocol,,,,Identifier,
2,AE,DOMAIN,Domain Abbreviation,text,2,,,Yes,,Assigned,,,,Identifier,
3,AE,USUBJID,Unique Subject Identifier,text,19,,,No,,Derived,,USUBJID,,Identifier,
4,AE,AESEQ,Sequence Number,integer,8,,,Yes,,Derived,,SEQUENCE,,Identifier,
5,AE,AESPID,Sponsor-Defined Identifier,text,2,,,No,,CRF,288,,,Identifier,
6,AE,AETERM,Reported Term for the Adverse Event,text,50,,,Yes,,CRF,288,,,Topic,
7,AE,AEMODIFY,Modified Reported Term,text,50,,,No,,Assigned,,,,Synonym Qualifier,
8,AE,AELLT,Lowest Level Term,text,35,,,No,MEDDRA,Assigned,,,,Variable Qualifier,
9,AE,AELLTCD,Lowest Level Term Code,integer,8,,,No,MEDDRA,Assigned,,,,Variable Qualifier,
10,AE,AEDECOD,Dictionary-Derived Term,text,35,,,Yes,MEDDRA,Assigned,,,,Synonym Qualifier,
11,AE,AEPTCD,Preferred Term Code,integer,8,,,No,MEDDRA,Assigned,,,,Variable Qualifier,
12,AE,AEHLT,High Level Term,text,59,,,No,MEDDRA,Assigned,,,,Variable Qualifier,
13,AE,AEHLTCD,High Level Term Code,integer,8,,,No,MEDDRA,Assigned,,,,Variable Qualifier,
14,AE,AEHLGT,High Level Group Term,text,52,,,No,MEDDRA,Assigned,,,,Variable Qualifier,
15,AE,AEHLGTCD,High Level Group Term Code,integer,8,,,No,MEDDRA,Assigned,,,,Variable Qualifier,
16,AE,AEBODSYS,Body System or Organ Class,text,52,,,No,MEDDRA,Assigned,,,,Record Qualifier,
17,AE,AEBDSYCD,Body System or Organ Class Code,integer,8,,,No,MEDDRA,Assigned,,,,Variable Qualifier,
18,AE,AESOC,Primary System Organ Class,text,52,,,No,MEDDRA,Assigned,,,,Variable Qualifier,
19,AE,AESOCCD,Primary System Organ Class Code,integer,8,,,No,MEDDRA,Assigned,,,,Variable Qualifier,
20,AE,AESEV,Severity/Intensity,text,8,,,No,AESEV,CRF,288,,,Record Qualifier,
21,AE,AESER,Serious Event,text,1,,,No,NY,CRF,288,,,Record Qualifier,
22,AE,AEACN,Action Taken with Study Treatment,text,16,,,No,AEACN,CRF,288,,,Record Qualifier,
23,AE,AEREL,Causality,text,11,,,No,AEREL,CRF,288,,,Record Qualifier,
24,AE,AEOUT,Outcome of Adverse Event,text,20,,,No,OUT,CRF,288,,,Record Qualifier,
25,AE,TAETORD,Planned Order of Element within Arm,integer,8,,,No,,Protocol,,,,Timing,
26,AE,EPOCH,Epoch,text,9,,,No,EPOCH,Derived,,EPOCHMERGE,,Timing,
27,AE,AESTDTC,Start Date/Time of Adverse Event,datetime,,,,No,,CRF,288,,,Timing,
28,AE,AEENDTC,End Date/Time of Adverse Event,datetime,,,,No,,CRF,288,,,Timing,
29,AE,AESTDY,Study Day of Start of Adverse Event,integer,8,,,No,,Derived,,STDY,,Timing,
30,AE,AEENDY,Study Day of End of Adverse Event,integer,8,,,No,,Derived,,ENDY,,Timing,
31,AE,AEDUR,Duration of Adverse Event,text,8,,,No,,CRF,288,,,Timing,
32,AE,AEENRF,End Relative to Reference Period,text,7,,,No,STENRF,Derived,,AEENRF,,Timing,
1,CM,STUDYID,Study Identifier,text,8,,,Yes,,Protocol,,,,Identifier,
2,CM,DOMAIN,Domain Abbreviation,text,2,,,Yes,,Assigned,,,,Identifier,
3,CM,USUBJID,Unique Subject Identifier,text,19,,,No,,Derived,,USUBJID,,Identifier,
4,CM,CMSEQ,Sequence Number,integer,8,,,Yes,,Derived,,SEQUENCE,,Identifier,
5,CM,CMSPID,Sponsor-Defined Identifier,text,2,,,No,,CRF,"9, 285",,,Identifier,
6,CM,CMTRT,"Reported Name of Drug, Med, or Therapy",text,37,,,Yes,,CRF,"9, 285",,,Topic,
7,CM,CMMODIFY,Modified Reported Name,text,37,,,No,,Assigned,,,,Synonym Qualifier,
8,CM,CMDECOD,Standardized Medication Name,text,35,,,No,,Assigned,,,,Synonym Qualifier,
9,CM,CMCAT,Category for Medication,text,57,,,No,CMCAT,CRF,9,,,Grouping Qualifier,
10,CM,CMINDC,Indication,text,37,,,No,,CRF,286,,,Record Qualifier,
11,CM,CMDOSTXT,Dose Description,text,34,,,No,,CRF,285,,,Record Qualifier,
12,CM,CMDOSU,Dose Units,text,11,,,No,CMDOSU,CRF,285,,,Variable Qualifier,
13,CM,CMDOSFRM,Dose Form,text,6,,,No,CMDOSFRM,Assigned,,,,Variable Qualifier,CMDOSFRM
14,CM,CMDOSFRQ,Dosing Frequency per Interval,text,19,,,No,CMDOSFRQ,CRF,285,,,Variable Qualifier,
15,CM,CMROUTE,Route of Administration,text,24,,,No,CMROUTE,CRF,285,,,Variable Qualifier,
16,CM,EPOCH,Epoch,text,9,,,No,EPOCH,Derived,,EPOCHMERGE,,Timing,
17,CM,CMSTDTC,Start Date/Time of Medication,datetime,,,,No,,CRF,"9, 285",,,Timing,
18,CM,CMENDTC,End Date/Time of Medication,datetime,,,,No,,CRF,"9, 285",,,Timing,
19,CM,CMSTDY,Study Day of Start of Medication,integer,8,,,No,,Derived,,STDY,,Timing,
20,CM,CMENDY,Study Day of End of Medication,integer,8,,,No,,Derived,,ENDY,,Timing,
21,CM,CMSTRF,Start Relative to Reference Period,text,7,,,No,STENRF,CRF,285,,,Timing,
22,CM,CMENRF,End Relative to Reference Period,text,7,,,No,STENRF,CRF,285,,,Timing,
1,CO,STUDYID,Study Identifier,text,8,,,Yes,,Protocol,,,,Identifier,
2,CO,DOMAIN,Domain Abbreviation,text,2,,,Yes,,Assigned,,,,Identifier,
3,CO,USUBJID,Unique Subject Identifier,text,19,,,No,,Derived,,USUBJID,,Identifier,
4,CO,COSEQ,Sequence Number,integer,8,,,Yes,,Derived,,SEQUENCE,,Identifier,
5,CO,COREF,Comment Reference,text,40,,,No,,CRF,290,,,Record Qualifier,
6,CO,COVAL,Comment,text,200,,,Yes,,CRF,290,,,Topic,
7,CO,COVAL1,Comment 1,text,137,,,No,,CRF,92,,,Topic,
8,CO,COVAL2,Comment 2,text,45,,,No,,CRF,92,,,Topic,
9,CO,COVAL3,Comment 3,text,88,,,No,,CRF,92,,,Topic,
10,CO,COEVAL,Evaluator,text,12,,,No,COEVAL,CRF,92,,,Record Qualifier,
11,CO,CODTC,Date/Time of Comment,datetime,,,,No,,CRF,290,,,Timing,
12,CO,CODY,Study Day of Comment,integer,8,,,No,,Derived,,STDY,,Timing,
1,DA,STUDYID,Study Identifier,text,8,,,Yes,,Protocol,,,,Identifier,
2,DA,DOMAIN,Domain Abbreviation,text,2,,,Yes,,Assigned,,,,Identifier,
3,DA,USUBJID,Unique Subject Identifier,text,19,,,No,,Derived,,USUBJID,,Identifier,
4,DA,DASEQ,Sequence Number,integer,8,,,Yes,,Derived,,SEQUENCE,,Identifier,
5,DA,DATESTCD,Short Name of Accountability Assessment,text,7,,,Yes,DATESTCD,Assigned,,,,Topic,
6,DA,DATEST,Name of Accountability Assessment,text,16,,,Yes,DATEST,Assigned,,,,Synonym Qualifier,
7,DA,DAORRES,Assessment Result in Original Units,text,2,,,No,,CRF,"30, 31, 41, 47, 55",,,Result Qualifier,
8,DA,DAORRESU,Original Units,text,6,,,No,DAORRESU,Assigned,,,,Variable Qualifier,
9,DA,DASTRESC,Assessment Result in Std Format,text,2,,,No,,Derived,,STRESC,,Result Qualifier,
10,DA,DASTRESU,Assessment Standard Units,text,6,,,No,DASTRESU,Assigned,,,,Variable Qualifier,
11,DA,VISITNUM,Visit Number,float,4,1,,No,,CRF,"30, 31, 41, 47, 55",,,Timing,
12,DA,VISIT,Visit Name,text,27,,,No,,Assigned,,,,Timing,
13,DA,EPOCH,Epoch,text,9,,,No,EPOCH,Derived,,EPOCHMERGE,,Timing,
14,DA,DADTC,Date/Time of Accountability Assessment,datetime,,,,No,,CRF,31,,,Timing,
15,DA,DADY,Study Day of Accountability Assessment,integer,8,,,No,,Derived,,STDY,,Timing,
1,DI,STUDYID,Study Identifier,text,8,,,Yes,,Protocol,,,,Identifier,
2,DI,DOMAIN,Domain Abbreviation,text,2,,,Yes,,Assigned,,,,Identifier,
3,DI,USUBJID,Unique Subject Identifier,text,19,,,Yes,,Derived,,USUBJID,,Identifier,
4,DI,DISEQ,Sequence Number,integer,8,,,Yes,,Derived,,SEQUENCE,,Identifier,
5,DI,DITESTCD,Diary and IMP Test Short Name,text,8,,,Yes,DITESTCD,CRF,"30, 31, 125, 131",,,Topic,
6,DI,DITEST,Diary and IMP Test Name,text,40,,,Yes,DITEST,Assigned,,,,Synonym Qualifier,
7,DI,DICAT,Category for Diary and IMP,text,21,,,No,DICAT,CRF,125,,,Grouping Qualifier,
8,DI,DIORRES,Result or Finding in Original Units,text,50,,,No,,CRF,"30, 31, 125, 131",,,Result Qualifier,
9,DI,DISTRESC,Character Result/Finding in Std Format,text,50,,,No,,Derived,,STRESC,,Result Qualifier,
10,DI,DISTRESN,Numeric Result/Finding in Standard Units,integer,8,,,No,,Derived,,STRESN,,Result Qualifier,
11,DI,DIBLFL,Baseline Flag,text,1,,,No,Y,Derived,,BASELINE,,Record Qualifier,
12,DI,VISITNUM,Visit Number,integer,8,,,No,,CRF,125,,,Timing,
13,DI,VISIT,Visit Name,text,33,,,No,,Assigned,,,,Timing,
14,DI,EPOCH,Epoch,text,9,,,No,EPOCH,Derived,,EPOCHMERGE,,Timing,
15,DI,DIDTC,Date/Time of Collection,datetime,,,,No,,CRF,125,,,Timing,
16,DI,DIDY,Study Day of Diary and IMP,integer,8,,,No,,Derived,,STDY,,Timing,
1,DM,STUDYID,Study Identifier,text,8,,,Yes,,Protocol,,,,Identifier,
2,DM,DOMAIN,Domain Abbreviation,text,2,,,Yes,,Assigned,,,,Identifier,
3,DM,USUBJID,Unique Subject Identifier,text,19,,,Yes,,Derived,,USUBJID,,Identifier,
4,DM,SUBJID,Subject Identifier for the Study,text,10,,,Yes,,CRF,2,,,Topic,
5,DM,RFSTDTC,Subject Reference Start Date/Time,datetime,,,,No,,CRF,30,,,Record Qualifier,
6,DM,RFENDTC,Subject Reference End Date/Time,datetime,,,,No,,Derived,,RFENDTC,,Record Qualifier,
7,DM,RFXSTDTC,Date/Time of First Study Treatment,datetime,,,,No,,CRF,30,,,Record Qualifier,
8,DM,RFXENDTC,Date/Time of Last Study Treatment,datetime,,,,No,,Derived,,RFXENDTC,,Record Qualifier,
9,DM,RFICDTC,Date/Time of Informed Consent,datetime,,,,No,,CRF,2,,,Record Qualifier,
10,DM,RFPENDTC,Date/Time of End of Participation,datetime,,,,No,,Derived,,RFPENDTC,,Record Qualifier,
11,DM,DTHDTC,Date/Time of Death,text,1,,,No,,Assigned,,,,Record Qualifier,
12,DM,DTHFL,Subject Death Flag,text,1,,,No,,Assigned,,,,Record Qualifier,
13,DM,SITEID,Study Site Identifier,text,4,,,Yes,,CRF,2,,,Record Qualifier,
14,DM,BRTHDTC,Date/Time of Birth,datetime,,,,No,,CRF,2,,,Record Qualifier,
15,DM,AGE,Age,integer,8,,,No,,Derived,,AGE,,Record Qualifier,
16,DM,AGEU,Age Units,text,5,,,No,AGEU,Assigned,,,,Variable Qualifier,
17,DM,SEX,Sex,text,1,,,Yes,SEX,CRF,2,,,Record Qualifier,
18,DM,RACE,Race,text,5,,,No,RACE,CRF,2,,,Record Qualifier,
19,DM,ARMCD,Planned Arm Code,text,19,,,Yes,ARMCD,Assigned,,,,Record Qualifier,
20,DM,ARM,Description of Planned Arm,text,57,,,Yes,ARM,Assigned,,,,Synonym Qualifier,
21,DM,ACTARMCD,Actual Arm Code,text,19,,,Yes,ACTARMCD,Assigned,,,,Record Qualifier,
22,DM,ACTARM,Description of Actual Arm,text,57,,,Yes,ACTARM,Assigned,,,,Synonym Qualifier,
23,DM,COUNTRY,Country,text,3,,,Yes,COUNTRY,Assigned,,,,Record Qualifier,
24,DM,DMDTC,Date/Time of Collection,datetime,,,,No,,CRF,2,,,Timing,
25,DM,DMDY,Study Day of Collection,integer,8,,,No,,Derived,,STDY,,Timing,
1,DS,STUDYID,Study Identifier,text,8,,,Yes,,Protocol,,,,Identifier,
2,DS,DOMAIN,Domain Abbreviation,text,2,,,Yes,,Assigned,,,,Identifier,
3,DS,USUBJID,Unique Subject Identifier,text,19,,,No,,Derived,,USUBJID,,Identifier,
4,DS,DSSEQ,Sequence Number,integer,8,,,Yes,,Derived,,SEQUENCE,,Identifier,
5,DS,DSTERM,Reported Term for the Disposition Event,text,67,,,Yes,,CRF,"2, 49, 58",,,Topic,
6,DS,DSDECOD,Standardized Disposition Term,text,25,,,Yes,,CRF,2,,,Synonym Qualifier,
7,DS,DSCAT,Category for Disposition Event,text,18,,,No,DSCAT,Assigned,,,,Grouping Qualifier,
8,DS,EPOCH,Epoch,text,12,,,No,EPOCH,Derived,,EPOCHMERGE,,Timing,
9,DS,DSSTDTC,Start Date/Time of Disposition Event,datetime,,,,No,,CRF,2,,,Timing,
10,DS,DSSTDY,Study Day of Start of Disposition Event,integer,8,,,No,,Derived,,STDY,,Timing,
1,DV,STUDYID,Study Identifier,text,8,,,Yes,,Protocol,,,,Identifier,
2,DV,DOMAIN,Domain Abbreviation,text,2,,,Yes,,Assigned,,,,Identifier,
3,DV,USUBJID,Unique Subject Identifier,text,19,,,No,,Derived,,USUBJID,,Identifier,
4,DV,DVSEQ,Sequence Number,integer,8,,,Yes,,Derived,,SEQUENCE,,Identifier,
5,DV,DVTERM,Protocol Deviation Term,text,200,,,Yes,,eDT,,,,Topic,
6,DV,DVDECOD,Protocol Deviation Coded Term,text,28,,,No,DVDECOD,Assigned,,,,Synonym Qualifier,
7,DV,DVCAT,Category for Protocol Deviation,text,17,,,No,DVCAT,Assigned,,,,Grouping Qualifier,
8,DV,VISITNUM,Visit Number,integer,8,,,No,,eDT,,,,Timing,
9,DV,VISIT,Visit Name,text,33,,,No,,Assigned,,,,Timing,
10,DV,EPOCH,Epoch,text,9,,,No,EPOCH,Derived,,EPOCHMERGE,,Timing,
11,DV,DVDTC,Date/Time of Protocol Deviation,datetime,,,,No,,eDT,,,,Timing,
12,DV,DVDY,Study Day of Protocol Deviations,integer,8,,,No,,Derived,,STDY,,Timing,
1,EG,STUDYID,Study Identifier,text,8,,,Yes,,Protocol,,,,Identifier,
2,EG,DOMAIN,Domain Abbreviation,text,2,,,Yes,,Assigned,,,,Identifier,
3,EG,USUBJID,Unique Subject Identifier,text,19,,,No,,Derived,,USUBJID,,Identifier,
4,EG,EGSEQ,Sequence Number,integer,8,,,Yes,,Derived,,SEQUENCE,,Identifier,
5,EG,EGTESTCD,ECG Test or Examination Short Name,text,6,,,Yes,EGTESTCD,CRF,"12, 20, 30",,,Topic,
6,EG,EGTEST,ECG Test or Examination Name,text,25,,,Yes,EGTEST,CRF,12,,,Synonym Qualifier,
7,EG,EGORRES,Result or Finding in Original Units,text,3,,,No,,CRF,20,,,Result Qualifier,
8,EG,EGORRESU,Original Units,text,9,,,No,EGORRESU,CRF,20,,,Variable Qualifier,
9,EG,EGSTRESC,Character Result/Finding in Std Format,text,3,,,No,,Derived,,STRESC,,Result Qualifier,
10,EG,EGSTRESN,Numeric Result/Finding in Standard Units,integer,8,,,No,,Derived,,STRESN,,Result Qualifier,
11,EG,EGSTRESU,Standard Units,text,9,,,No,EGSTRESU,Assigned,,,,Variable Qualifier,
12,EG,EGSTAT,Completion Status,text,8,,,No,ND,Assigned,,,,Record Qualifier,
13,EG,EGMETHOD,Method of ECG Test,text,19,,,No,EGMETHOD,Assigned,,,,Record Qualifier,
14,EG,EGBLFL,Baseline Flag,text,1,,,No,Y,Derived,,BASELINE,,Record Qualifier,
15,EG,VISITNUM,Visit Number,float,4,1,,No,,CRF,12,,,Timing,
16,EG,VISIT,Visit Name,text,33,,,No,,Assigned,,,,Timing,
17,EG,EPOCH,Epoch,text,9,,,No,EPOCH,Derived,,EPOCHMERGE,,Timing,
18,EG,EGDTC,Date/Time of ECG,datetime,,,,No,,CRF,"12, 20",,,Timing,
19,EG,EGDY,Study Day of ECG,integer,8,,,No,,Derived,,STDY,,Timing,
1,EX,STUDYID,Study Identifier,text,8,,,Yes,,Protocol,,,,Identifier,
2,EX,DOMAIN,Domain Abbreviation,text,2,,,Yes,,Assigned,,,,Identifier,
3,EX,USUBJID,Unique Subject Identifier,text,19,,,No,,Derived,,USUBJID,,Identifier,
4,EX,EXSEQ,Sequence Number,integer,8,,,Yes,,Derived,,SEQUENCE,,Identifier,
5,EX,EXTRT,Name of Actual Treatment,text,8,,,Yes,EXTRT,Assigned,,,,Topic,
6,EX,EXDOSE,Dose per Administration,integer,8,,,No,,Assigned,,,,Record Qualifier,
7,EX,EXDOSU,Dose Units,text,5,,,No,EXDOSU,Assigned,,,,Variable Qualifier,
8,EX,EXDOSFRM,Dose Form,text,8,,,No,EXDOSFRM,Assigned,,,,Variable Qualifier,
9,EX,EXDOSFRQ,Dosing Frequency per Interval,text,3,,,No,EXDOSFRQ,Assigned,,,,Variable Qualifier,
10,EX,EXROUTE,Route of Administration,text,4,,,No,EXROUTE,Assigned,,,,Variable Qualifier,
11,EX,EPOCH,Epoch,text,12,,,No,EPOCH,Derived,,EPOCHMERGE,,Timing,
12,EX,EXSTDTC,Start Date/Time of Treatment,datetime,,,,No,,CRF,30,,,Timing,
13,EX,EXENDTC,End Date/Time of Treatment,datetime,,,,No,,Assigned,,,,Timing,EXENDTC
14,EX,EXSTDY,Study Day of Start of Treatment,integer,8,,,No,,Derived,,STDY,,Timing,
15,EX,EXENDY,Study Day of End of Treatment,integer,8,,,No,,Derived,,ENDY,,Timing,
1,FA,STUDYID,Study Identifier,text,8,,,Yes,,Protocol,,,,Identifier,
2,FA,DOMAIN,Domain Abbreviation,text,2,,,Yes,,Assigned,,,,Identifier,
3,FA,USUBJID,Unique Subject Identifier,text,19,,,No,,Derived,,USUBJID,,Identifier,
4,FA,FASEQ,Sequence Number,integer,8,,,Yes,,Derived,,SEQUENCE,,Identifier,
5,FA,FATESTCD,Findings About Test Short Name,text,8,,,Yes,FATESTCD,CRF,"3, 4, 5, 6, 7, 8, 25",,,Topic,
6,FA,FATEST,Findings About Test Name,text,40,,,Yes,FATEST,Assigned,,,,Synonym Qualifier,
7,FA,FAOBJ,Object of the Observation,text,12,,,Yes,,Assigned,,,,Record Qualifier,
8,FA,FACAT,Category for Findings About,text,38,,,No,FACAT,CRF,"3, 4, 5, 6, 7, 8, 25",,,Grouping Qualifier,
9,FA,FAORRES,Result or Finding in Original Units,text,200,,,No,,CRF,"3, 4, 5, 6, 7, 8, 25",,,Result Qualifier,
10,FA,FASTRESC,Character Result/Finding in Std Format,text,200,,,No,,CRF,"3, 4, 5, 6, 7, 8",,,Result Qualifier,
11,FA,FASTRESN,Numeric Result/Finding in Standard Units,integer,8,,,No,,Derived,,STRESN,,Result Qualifier,
12,FA,VISITNUM,Visit Number,float,3,1,,No,,CRF,6,,,Timing,
13,FA,VISIT,Visit Name,text,44,,,No,,Assigned,,,,Timing,
14,FA,EPOCH,Epoch,text,9,,,No,EPOCH,Derived,,EPOCHMERGE,,Timing,
15,FA,FADTC,Date/Time of Collection,datetime,,,,No,,CRF,6,,,Timing,
16,FA,FADY,Study Day of Vital Signs,integer,8,,,No,,Derived,,STDY,,Timing,
1,LB,STUDYID,Study Identifier,text,8,,,Yes,,Protocol,,,,Identifier,
2,LB,DOMAIN,Domain Abbreviation,text,2,,,Yes,,Assigned,,,,Identifier,
3,LB,USUBJID,Unique Subject Identifier,text,19,,,No,,Derived,,USUBJID,,Identifier,
4,LB,LBSEQ,Sequence Number,integer,8,,,Yes,,Derived,,SEQUENCE,,Identifier,
5,LB,LBREFID,Specimen ID,text,11,,,No,,eDT,,,,Identifier,
6,LB,LBTESTCD,Lab Test or Examination Short Name,text,8,,,Yes,LBTESTCD,Assigned,,,,Topic,
7,LB,LBTEST,Lab Test or Examination Name,text,34,,,Yes,LBTEST,Assigned,,,,Synonym Qualifier,
8,LB,LBCAT,Category for Lab Test,text,11,,,No,LBCAT,Derived,,LBCAT,,Grouping Qualifier,
9,LB,LBORRES,Result or Finding in Original Units,text,13,,,No,,eDT,,,,Result Qualifier,LBORRES
10,LB,LBORRESU,Original Units,text,7,,,No,LBORRESU,eDT,,,,Variable Qualifier,LBORRESU
11,LB,LBORNRLO,Reference Range Lower Limit in Orig Unit,text,8,,,No,,Assigned,,,,Variable Qualifier,
12,LB,LBORNRHI,Reference Range Upper Limit in Orig Unit,text,8,,,No,,Assigned,,,,Variable Qualifier,
13,LB,LBSTRESC,Character Result/Finding in Std Format,text,13,,,No,,Derived,,STRESC,,Result Qualifier,
14,LB,LBSTRESN,Numeric Result/Finding in Standard Units,float,6,3,,No,,Derived,,STRESN,,Result Qualifier,
15,LB,LBSTRESU,Standard Units,text,7,,,No,LBSTRESU,Derived,,LBRESU,,Variable Qualifier,
16,LB,LBSTNRLO,Reference Range Lower Limit-Std Units,float,6,3,,No,,Assigned,,,,Variable Qualifier,
17,LB,LBSTNRHI,Reference Range Upper Limit-Std Units,float,6,3,,No,,Assigned,,,,Variable Qualifier,
18,LB,LBNRIND,Reference Range Indicator,text,6,,,No,LBNRIND,Derived,,LBNRIND,,Variable Qualifier,
19,LB,LBSTAT,Completion Status,text,8,,,No,ND,Derived,,STAT,,Record Qualifier,
20,LB,LBREASND,Reason Test Not Done,text,24,,,No,,eDT,,,,Record Qualifier,
21,LB,LBBLFL,Baseline Flag,text,1,,,No,Y,Derived,,BASELINE,,Record Qualifier,
22,LB,VISITNUM,Visit Number,float,4,1,,No,,Assigned,,,,Timing,LBVISITNUM
23,LB,VISIT,Visit Name,text,44,,,No,,Assigned,,,,Timing,
24,LB,EPOCH,Epoch,text,9,,,No,EPOCH,Derived,,EPOCHMERGE,,Timing,
25,LB,LBDTC,Date/Time of Specimen Collection,datetime,,,,No,,eDT,,,,Timing,
26,LB,LBDY,Study Day of Specimen Collection,integer,8,,,No,,Derived,,STDY,,Timing,
1,MH,STUDYID,Study Identifier,text,8,,,Yes,,Protocol,,,,Identifier,
2,MH,DOMAIN,Domain Abbreviation,text,2,,,Yes,,Assigned,,,,Identifier,
3,MH,USUBJID,Unique Subject Identifier,text,19,,,No,,Derived,,USUBJID,,Identifier,
4,MH,MHSEQ,Sequence Number,integer,8,,,Yes,,Derived,,SEQUENCE,,Identifier,
5,MH,MHSPID,Sponsor-Defined Identifier,text,2,,,No,,CRF,10,,,Identifier,
6,MH,MHTERM,Reported Term for the Medical History,text,85,,,Yes,,CRF,"7, 10",,,Topic,
7,MH,MHLLT,Lowest Level Term,text,33,,,No,MEDDRA,Assigned,,,,Variable Qualifier,
8,MH,MHLLTCD,Lowest Level Term Code,integer,8,,,No,MEDDRA,Assigned,,,,Variable Qualifier,
9,MH,MHDECOD,Dictionary-Derived Term,text,35,,,No,MEDDRA,Assigned,,,,Synonym Qualifier,
10,MH,MHCAT,Category for Medical History,text,28,,,No,MHCAT,Assigned,,,,Grouping Qualifier,
11,MH,MHBODSYS,Body System or Organ Class,text,67,,,No,MHBODSYS,Assigned,,,,Record Qualifier,
12,MH,MHSTDTC,Start Date/Time of Medical History Event,text,10,,,No,,CRF,10,,,Timing,
13,MH,MHENDTC,End Date/Time of Medical History Event,datetime,,,,No,,CRF,10,,,Timing,
14,MH,MHENRF,End Relative to Reference Period,text,7,,,No,STENRF,CRF,10,,,Timing,
1,PC,STUDYID,Study Identifier,text,8,,,Yes,,Protocol,,,,Identifier,
2,PC,DOMAIN,Domain Abbreviation,text,2,,,Yes,,Assigned,,,,Identifier,
3,PC,USUBJID,Unique Subject Identifier,text,19,,,No,,Derived,,USUBJID,,Identifier,
4,PC,PCSEQ,Sequence Number,integer,8,,,Yes,,Derived,,SEQUENCE,,Identifier,
5,PC,PCTESTCD,Pharmacokinetic Test Short Name,text,8,,,Yes,PCTESTCD,Assigned,,,,Topic,
6,PC,PCTEST,Pharmacokinetic Test Name,text,39,,,Yes,PCTEST,Assigned,,,,Synonym Qualifier,
7,PC,PCCAT,Test Category,text,18,,,No,PCCAT,Derived,,PCCAT,,Grouping Qualifier,
8,PC,PCORRES,Result or Finding in Original Units,text,24,,,No,,eDT,,,,Result Qualifier,
9,PC,PCORRESU,Original Units,text,5,,,No,PCORRESU,Derived,,PCRESU,,Variable Qualifier,
10,PC,PCSTRESC,Character Result/Finding in Standard For,text,24,,,No,,Derived,,STRESC,,Result Qualifier,
11,PC,PCSTRESN,Numeric Result/Finding in Standard Units,float,10,4,,No,,Derived,,STRESN,,Result Qualifier,
12,PC,PCSTRESU,Standard Units,text,5,,,No,PCSTRESU,Derived,,PCRESU,,Variable Qualifier,
13,PC,PCSTAT,Completion Status,text,8,,,No,ND,CRF,24,,,Record Qualifier,
14,PC,PCREASND,Reason Test Not Done,text,24,,,No,,eDT,,,,Record Qualifier,
15,PC,PCSPEC,Specimen Material Type,text,6,,,No,PCSPEC,Assigned,,,,Record Qualifier,
16,PC,PCLLOQ,Lower Limit of Quantitation,float,6,3,,No,,eDT,,,,Variable Qualifier,
17,PC,VISITNUM,Visit Number,float,4,1,,No,,CRF,24,,,Timing,
18,PC,VISIT,Visit Name,text,37,,,No,,Assigned,,,,Timing,
19,PC,EPOCH,Epoch,text,9,,,No,EPOCH,Derived,,EPOCHMERGE,,Timing,
20,PC,PCDTC,Date/Time of Specimen Collection,datetime,,,,No,,CRF,24,,,Timing,
21,PC,PCDY,Actual Study Day of Specimen Collection,integer,8,,,No,,Derived,,STDY,,Timing,
22,PC,PCTPT,Planned Time Point Name,text,20,,,No,,CRF,24,,,Timing,
23,PC,PCTPTNUM,Planned Time Point Number,integer,8,,,No,,Assigned,,,,Timing,
1,PP,STUDYID,Study Identifier,text,8,,,Yes,,Protocol,,,,Identifier,
2,PP,DOMAIN,Domain Abbreviation,text,2,,,Yes,,Assigned,,,,Identifier,
3,PP,USUBJID,Unique Subject Identifier,text,19,,,No,,Derived,,USUBJID,,Identifier,
4,PP,PPSEQ,Sequence Number,integer,8,,,Yes,,Derived,,SEQUENCE,,Identifier,
5,PP,PPTESTCD,Parameter Short Name,text,8,,,Yes,PPTESTCD,Assigned,,,,Topic,
6,PP,PPTEST,Parameter Name,text,31,,,Yes,PPTEST,Assigned,,,,Synonym Qualifier,
7,PP,PPCAT,Parameter Category,text,19,,,No,PPCAT,Assigned,,,,Grouping Qualifier,
8,PP,PPORRES,Result or Finding in Original Units,text,63,,,No,,eDT,,,,Result Qualifier,PPORRES
9,PP,PPORRESU,Original Units,text,7,,,No,PPORRESU,eDT,,,,Variable Qualifier,
10,PP,PPSTRESC,Character Result/Finding in Std Format,text,63,,,No,,Derived,,STRESC,,Result Qualifier,
11,PP,PPSTRESN,Numeric Result/Finding in Standard Units,float,15,8,,No,,eDT,,,,Result Qualifier,
12,PP,PPSTRESU,Standard Units,text,7,,,No,PPSTRESU,eDT,,,,Variable Qualifier,
13,PP,PPSTAT,Completion Status,text,8,,,No,ND,eDT,,,,Record Qualifier,
14,PP,PPSPEC,Specimen Material Type,text,6,,,No,PPSPEC,eDT,,,,Record Qualifier,
15,PP,VISITNUM,Visit Number,integer,8,,,No,,eDT,,,,Timing,
16,PP,VISIT,Visit Name,text,26,,,No,,Assigned,,,,Timing,
17,PP,PPRFTDTC,Date/Time of Reference Point,datetime,,,,No,,eDT,,,,Timing,
18,PP,EPOCH,Epoch,text,9,,,No,EPOCH,Derived,,EPOCHMERGE,,Timing,
19,PP,PPDTC,Date/Time of Parameter Calculations,datetime,,,,No,,eDT,,,,Timing,
20,PP,PPDY,Actual Study Day of Specimen Collection,integer,8,,,No,,Derived,,STDY,,Timing,
1,QS,STUDYID,Study Identifier,text,8,,,Yes,,Protocol,,,,Identifier,
2,QS,DOMAIN,Domain Abbreviation,text,2,,,Yes,,Assigned,,,,Identifier,
3,QS,USUBJID,Unique Subject Identifier,text,19,,,No,,Derived,,USUBJID,,Identifier,
4,QS,QSSEQ,Sequence Number,integer,8,,,Yes,,Derived,,SEQUENCE,,Identifier,
5,QS,QSSPID,Sponsor-Defined Identifier,text,3,,,No,,CRF,56,,,Identifier,
6,QS,QSTESTCD,Question Short Name,text,8,,,Yes,QSTESTCD,CRF,"56, 57",,,Topic,
7,QS,QSTEST,Question Name,text,39,,,Yes,QSTEST,CRF,56,,,Synonym Qualifier,
8,QS,QSCAT,Category of Question,text,38,,,Yes,QSCAT,CRF,56,,,Grouping Qualifier,
9,QS,QSSCAT,Subcategory for Question,text,24,,,No,QSSCAT,CRF,56,,,Grouping Qualifier,
10,QS,QSORRES,Finding in Original Units,text,48,,,No,,CRF,"56, 57",,,Result Qualifier,
11,QS,QSSTRESC,Character Result/Finding in Std Format,text,48,,,No,,Derived,,STRESC,,Result Qualifier,
12,QS,QSSTAT,Completion Status,text,8,,,No,ND,CRF,"35, 54, 57",,,Record Qualifier,
13,QS,QSREASND,Reason Not Performed,text,30,,,No,,CRF,"35, 54, 57",,,Record Qualifier,
14,QS,QSBLFL,Baseline Flag,text,1,,,No,Y,Derived,,BASELINE,,Record Qualifier,
15,QS,VISITNUM,Visit Number,integer,8,,,No,,CRF,"35, 54, 57",,,Timing,
16,QS,VISIT,Visit Name,text,33,,,No,,Assigned,,,,Timing,
17,QS,EPOCH,Epoch,text,9,,,No,EPOCH,Derived,,EPOCHMERGE,,Timing,
18,QS,QSDTC,Date/Time of Finding,datetime,,,,No,,CRF,"35, 54, 57",,,Timing,
19,QS,QSDY,Study Day of Finding,integer,8,,,No,,Derived,,STDY,,Timing,
1,SE,STUDYID,Study Identifier,text,8,,,Yes,,Protocol,,,,Identifier,
2,SE,DOMAIN,Domain Abbreviation,text,2,,,Yes,,Assigned,,,,Identifier,
3,SE,USUBJID,Unique Subject Identifier,text,19,,,Yes,,Derived,,USUBJID,,Identifier,
4,SE,SESEQ,Sequence Number,integer,8,,,Yes,,Derived,,SEQUENCE,,Identifier,
5,SE,ETCD,Element Code,text,4,,,Yes,ETCD,Assigned,,,,Topic,
6,SE,ELEMENT,Description of Element,text,9,,,No,ELEMENT,Protocol,,,,Synonym Qualifier,
7,SE,SESTDTC,Start Date/Time of Element,datetime,,,,Yes,,Derived,,SESTDTC,,Timing,
8,SE,SEENDTC,End Date/Time of Element,datetime,,,,No,,Derived,,SEENDTC,,Timing,
9,SE,TAETORD,Planned Order of Element within Arm,integer,8,,,No,,Protocol,,,,Timing,
10,SE,EPOCH,Epoch,text,12,,,No,EPOCH,Derived,,EPOCHSE,,Timing,
11,SE,SESTDY,Study Day of Start of Observation,integer,8,,,No,,Derived,,STDY,,Timing,
12,SE,SEENDY,Study Day of End of Observation,integer,8,,,No,,Derived,,ENDY,,Timing,
1,SU,STUDYID,Study Identifier,text,8,,,Yes,,Protocol,,,,Identifier,
2,SU,DOMAIN,Domain Abbreviation,text,2,,,Yes,,Assigned,,,,Identifier,
3,SU,USUBJID,Unique Subject Identifier,text,19,,,No,,Derived,,USUBJID,,Identifier,
4,SU,SUSEQ,Sequence Number,integer,8,,,Yes,,Derived,,SEQUENCE,,Identifier,
5,SU,SUTRT,Reported Name of Substance,text,8,,,Yes,,Assigned,,,,Topic,
6,SU,SUOCCUR,SU Occurrence,text,1,,,No,NY,CRF,11,,,Record Qualifier,
7,SU,SUDOSFRQ,Use Frequency Per Interval,text,2,,,No,SUDOSFRQ,CRF,11,,,Variable Qualifier,
8,SU,VISITNUM,Visit Number,integer,8,,,No,,Assigned,,,,Timing,
9,SU,VISIT,Visit Name,text,33,,,No,,Assigned,,,,Timing,
10,SU,EPOCH,Epoch,text,9,,,No,EPOCH,Derived,,EPOCHMERGE,,Timing,
11,SU,SUSTDTC,Start Date/Time of Substance Use,datetime,,,,No,,CRF,11,,,Timing,
12,SU,SUSTDY,Study Day of Start of Substance Use,integer,8,,,No,,Derived,,STDY,,Timing,
1,SUPPAE,STUDYID,Study Identifier,text,8,,,Yes,,Protocol,,,,Identifier,
2,SUPPAE,RDOMAIN,Related Domain Abbreviation,text,2,,,Yes,,Assigned,,,,Identifier,
3,SUPPAE,USUBJID,Unique Subject Identifier,text,19,,,No,,Derived,,USUBJID,,Identifier,
4,SUPPAE,IDVAR,Identifying Variable,text,5,,,No,SUPIDVAR,Assigned,,,,Record Qualifier,
5,SUPPAE,IDVARVAL,Identifying Variable Value,text,2,,,No,,Assigned,,,,Record Qualifier,
6,SUPPAE,QNAM,Qualifier Variable Name,text,7,,,Yes,SUPPAEQNAM,Assigned,,,,Topic,
7,SUPPAE,QLABEL,Qualifier Variable Label,text,23,,,Yes,,Assigned,,,,Synonym Qualifier,
8,SUPPAE,QVAL,Data Value,text,1,,,Yes,,,,,,Result,
9,SUPPAE,QORIG,Origin,text,7,,,Yes,,Assigned,,,,Result Qualifier,
10,SUPPAE,QEVAL,Evaluator,text,1,,,No,,Assigned,,,,Result Qualifier,
1,SUPPCM,STUDYID,Study Identifier,text,8,,,Yes,,Protocol,,,,Identifier,
2,SUPPCM,RDOMAIN,Related Domain Abbreviation,text,2,,,Yes,,Assigned,,,,Identifier,
3,SUPPCM,USUBJID,Unique Subject Identifier,text,19,,,No,,Derived,,USUBJID,,Identifier,
4,SUPPCM,IDVAR,Identifying Variable,text,5,,,No,SUPIDVAR,Assigned,,,,Record Qualifier,
5,SUPPCM,IDVARVAL,Identifying Variable Value,text,2,,,No,,Assigned,,,,Record Qualifier,
6,SUPPCM,QNAM,Qualifier Variable Name,text,7,,,Yes,SUPPCMQNAM,Assigned,,,,Topic,
7,SUPPCM,QLABEL,Qualifier Variable Label,text,24,,,Yes,,Assigned,,,,Synonym Qualifier,
8,SUPPCM,QVAL,Data Value,text,118,,,Yes,,,,,,Result,
9,SUPPCM,QORIG,Origin,text,3,,,Yes,,Assigned,,,,Result Qualifier,
10,SUPPCM,QEVAL,Evaluator,text,1,,,No,,Assigned,,,,Result Qualifier,
1,SUPPDA,STUDYID,Study Identifier,text,8,,,Yes,,Protocol,,,,Identifier,
2,SUPPDA,RDOMAIN,Related Domain Abbreviation,text,2,,,Yes,,Assigned,,,,Identifier,
3,SUPPDA,USUBJID,Unique Subject Identifier,text,19,,,No,,Derived,,USUBJID,,Identifier,
4,SUPPDA,IDVAR,Identifying Variable,text,8,,,No,SUPIDVAR,Assigned,,,,Record Qualifier,
5,SUPPDA,IDVARVAL,Identifying Variable Value,text,10,,,No,,Assigned,,,,Record Qualifier,
6,SUPPDA,QNAM,Qualifier Variable Name,text,8,,,Yes,SUPPDAQNAM,Assigned,,,,Topic,
7,SUPPDA,QLABEL,Qualifier Variable Label,text,40,,,Yes,,Assigned,,,,Synonym Qualifier,
8,SUPPDA,QVAL,Data Value,text,133,,,Yes,,,,,,Result,
9,SUPPDA,QORIG,Origin,text,3,,,Yes,,Assigned,,,,Result Qualifier,
10,SUPPDA,QEVAL,Evaluator,text,1,,,No,,Assigned,,,,Result Qualifier,
1,SUPPDM,STUDYID,Study Identifier,text,8,,,Yes,,Protocol,,,,Identifier,
2,SUPPDM,RDOMAIN,Related Domain Abbreviation,text,2,,,Yes,,Assigned,,,,Identifier,
3,SUPPDM,USUBJID,Unique Subject Identifier,text,19,,,No,,Derived,,USUBJID,,Identifier,
4,SUPPDM,IDVAR,Identifying Variable,text,1,,,No,SUPIDVAR,Assigned,,,,Record Qualifier,
5,SUPPDM,IDVARVAL,Identifying Variable Value,text,1,,,No,,Assigned,,,,Record Qualifier,
6,SUPPDM,QNAM,Qualifier Variable Name,text,6,,,Yes,SUPPDMQNAM,Assigned,,,,Topic,
7,SUPPDM,QLABEL,Qualifier Variable Label,text,37,,,Yes,,Assigned,,,,Synonym Qualifier,
8,SUPPDM,QVAL,Data Value,datetime,,,,Yes,,,,,,Result,
9,SUPPDM,QORIG,Origin,text,3,,,Yes,,Assigned,,,,Result Qualifier,
10,SUPPDM,QEVAL,Evaluator,text,1,,,No,,Assigned,,,,Result Qualifier,
1,SUPPDS,STUDYID,Study Identifier,text,8,,,Yes,,Protocol,,,,Identifier,
2,SUPPDS,RDOMAIN,Related Domain Abbreviation,text,2,,,Yes,,Assigned,,,,Identifier,
3,SUPPDS,USUBJID,Unique Subject Identifier,text,19,,,No,,Derived,,USUBJID,,Identifier,
4,SUPPDS,IDVAR,Identifying Variable,text,5,,,No,SUPIDVAR,Assigned,,,,Record Qualifier,
5,SUPPDS,IDVARVAL,Identifying Variable Value,text,1,,,No,,Assigned,,,,Record Qualifier,
6,SUPPDS,QNAM,Qualifier Variable Name,text,7,,,Yes,SUPPDSQNAM,Assigned,,,,Topic,
7,SUPPDS,QLABEL,Qualifier Variable Label,text,36,,,Yes,,Assigned,,,,Synonym Qualifier,
8,SUPPDS,QVAL,Data Value,text,77,,,Yes,,,,,,Result,
9,SUPPDS,QORIG,Origin,text,3,,,Yes,,Assigned,,,,Result Qualifier,
10,SUPPDS,QEVAL,Evaluator,text,1,,,No,,Assigned,,,,Result Qualifier,
1,SUPPDV,STUDYID,Study Identifier,text,8,,,Yes,,Protocol,,,,Identifier,
2,SUPPDV,RDOMAIN,Related Domain Abbreviation,text,2,,,Yes,,Assigned,,,,Identifier,
3,SUPPDV,USUBJID,Unique Subject Identifier,text,19,,,No,,Derived,,USUBJID,,Identifier,
4,SUPPDV,IDVAR,Identifying Variable,text,5,,,No,SUPIDVAR,Assigned,,,,Record Qualifier,
5,SUPPDV,IDVARVAL,Identifying Variable Value,text,2,,,No,,Assigned,,,,Record Qualifier,
6,SUPPDV,QNAM,Qualifier Variable Name,text,8,,,Yes,SUPPDVQNAM,Assigned,,,,Topic,
7,SUPPDV,QLABEL,Qualifier Variable Label,text,27,,,Yes,,Assigned,,,,Synonym Qualifier,
8,SUPPDV,QVAL,Data Value,text,200,,,Yes,,,,,,Result,
9,SUPPDV,QORIG,Origin,text,3,,,Yes,,Assigned,,,,Result Qualifier,
10,SUPPDV,QEVAL,Evaluator,text,1,,,No,,Assigned,,,,Result Qualifier,
1,SUPPEG,STUDYID,Study Identifier,text,8,,,Yes,,Protocol,,,,Identifier,
2,SUPPEG,RDOMAIN,Related Domain Abbreviation,text,2,,,Yes,,Assigned,,,,Identifier,
3,SUPPEG,USUBJID,Unique Subject Identifier,text,19,,,No,,Derived,,USUBJID,,Identifier,
4,SUPPEG,IDVAR,Identifying Variable,text,8,,,No,SUPIDVAR,Assigned,,,,Record Qualifier,
5,SUPPEG,IDVARVAL,Identifying Variable Value,text,5,,,No,,Assigned,,,,Record Qualifier,
6,SUPPEG,QNAM,Qualifier Variable Name,text,6,,,Yes,SUPPEGQNAM,Assigned,,,,Topic,
7,SUPPEG,QLABEL,Qualifier Variable Label,text,37,,,Yes,,Assigned,,,,Synonym Qualifier,
8,SUPPEG,QVAL,Data Value,text,61,,,Yes,,,,,,Result,
9,SUPPEG,QORIG,Origin,text,3,,,Yes,,Assigned,,,,Result Qualifier,
10,SUPPEG,QEVAL,Evaluator,text,1,,,No,,Assigned,,,,Result Qualifier,
1,SUPPEX,STUDYID,Study Identifier,text,8,,,Yes,,Protocol,,,,Identifier,
2,SUPPEX,RDOMAIN,Related Domain Abbreviation,text,2,,,Yes,,Assigned,,,,Identifier,
3,SUPPEX,USUBJID,Unique Subject Identifier,text,19,,,No,,Derived,,USUBJID,,Identifier,
4,SUPPEX,IDVAR,Identifying Variable,text,5,,,No,SUPIDVAR,Assigned,,,,Record Qualifier,
5,SUPPEX,IDVARVAL,Identifying Variable Value,text,1,,,No,,Assigned,,,,Record Qualifier,
6,SUPPEX,QNAM,Qualifier Variable Name,text,8,,,Yes,SUPPEXQNAM,Assigned,,,,Topic,
7,SUPPEX,QLABEL,Qualifier Variable Label,text,29,,,Yes,,Assigned,,,,Synonym Qualifier,
8,SUPPEX,QVAL,Data Value,datetime,,,,Yes,,,,,,Result,
9,SUPPEX,QORIG,Origin,text,3,,,Yes,,Assigned,,,,Result Qualifier,
10,SUPPEX,QEVAL,Evaluator,text,1,,,No,,Assigned,,,,Result Qualifier,
1,SUPPLB,STUDYID,Study Identifier,text,8,,,Yes,,Protocol,,,,Identifier,
2,SUPPLB,RDOMAIN,Related Domain Abbreviation,text,2,,,Yes,,Assigned,,,,Identifier,
3,SUPPLB,USUBJID,Unique Subject Identifier,text,19,,,No,,Derived,,USUBJID,,Identifier,
4,SUPPLB,IDVAR,Identifying Variable,text,8,,,No,SUPIDVAR,Assigned,,,,Record Qualifier,
5,SUPPLB,IDVARVAL,Identifying Variable Value,text,6,,,No,,Assigned,,,,Record Qualifier,
6,SUPPLB,QNAM,Qualifier Variable Name,text,8,,,Yes,SUPPLBQNAM,Assigned,,,,Topic,
7,SUPPLB,QLABEL,Qualifier Variable Label,text,40,,,Yes,,Assigned,,,,Synonym Qualifier,
8,SUPPLB,QVAL,Data Value,text,200,,,Yes,,,,,,Result,
9,SUPPLB,QORIG,Origin,text,3,,,Yes,,Assigned,,,,Result Qualifier,
10,SUPPLB,QEVAL,Evaluator,text,1,,,No,,Assigned,,,,Result Qualifier,
1,SUPPPP,STUDYID,Study Identifier,text,8,,,Yes,,Protocol,,,,Identifier,
2,SUPPPP,RDOMAIN,Related Domain Abbreviation,text,2,,,Yes,,Assigned,,,,Identifier,
3,SUPPPP,USUBJID,Unique Subject Identifier,text,19,,,Yes,,Derived,,USUBJID,,Identifier,
4,SUPPPP,IDVAR,Identifying Variable,text,5,,,No,SUPIDVAR,Assigned,,,,Record Qualifier,
5,SUPPPP,IDVARVAL,Identifying Variable Value,text,3,,,No,,Assigned,,,,Record Qualifier,
6,SUPPPP,QNAM,Qualifier Variable Name,text,7,,,Yes,SUPPPPQNAM,Assigned,,,,Topic,
7,SUPPPP,QLABEL,Qualifier Variable Label,text,11,,,Yes,,Assigned,,,,Synonym Qualifier,
8,SUPPPP,QVAL,Data Value,text,2,,,Yes,,,,,,Result,
9,SUPPPP,QORIG,Origin,text,3,,,Yes,,Assigned,,,,Result Qualifier,
10,SUPPPP,QEVAL,Evaluator,text,1,,,No,,Assigned,,,,Result Qualifier,
1,SUPPVS,STUDYID,Study Identifier,text,8,,,Yes,,Protocol,,,,Identifier,
2,SUPPVS,RDOMAIN,Related Domain Abbreviation,text,2,,,Yes,,Assigned,,,,Identifier,
3,SUPPVS,USUBJID,Unique Subject Identifier,text,19,,,No,,Derived,,USUBJID,,Identifier,
4,SUPPVS,IDVAR,Identifying Variable,text,5,,,No,SUPIDVAR,Assigned,,,,Record Qualifier,
5,SUPPVS,IDVARVAL,Identifying Variable Value,datetime,,,,No,,Assigned,,,,Record Qualifier,
6,SUPPVS,QNAM,Qualifier Variable Name,text,5,,,Yes,SUPPVSQNAM,Assigned,,,,Topic,
7,SUPPVS,QLABEL,Qualifier Variable Label,text,37,,,Yes,,Assigned,,,,Synonym Qualifier,
8,SUPPVS,QVAL,Data Value,text,3,,,Yes,,,,,,Result,
9,SUPPVS,QORIG,Origin,text,3,,,Yes,,Assigned,,,,Result Qualifier,
10,SUPPVS,QEVAL,Evaluator,text,1,,,No,,Assigned,,,,Result Qualifier,
1,SV,STUDYID,Study Identifier,text,8,,,Yes,,Protocol,,,,Identifier,
2,SV,DOMAIN,Domain Abbreviation,text,2,,,Yes,,Assigned,,,,Identifier,
3,SV,USUBJID,Unique Subject Identifier,text,19,,,No,,Derived,,USUBJID,,Identifier,
4,SV,VISITNUM,Visit Number,float,4,1,,Yes,,CRF,"2, 18, 26, 31, 36, 44, 50, 69, 75, 81, 87, 93, 99, 106, 115",,,Topic,
5,SV,VISIT,Visit Name,text,44,,,No,,Assigned,,,,Synonym Qualifier,
6,SV,EPOCH,Epoch,text,9,,,No,EPOCH,Derived,,EPOCHMERGE,,Timing,
7,SV,SVSTDTC,Start Date/Time of Visit,datetime,,,,No,,CRF,"2, 18",,,Timing,
8,SV,SVENDTC,End Date/Time of Visit,datetime,,,,No,,CRF,"2, 18, 26, 31, 36, 44, 50, 69, 75, 81, 87, 93, 99, 106, 115",,,Timing,
9,SV,SVSTDY,Study Day of Start of Visit,integer,8,,,No,,Derived,,STDY,,Timing,
10,SV,SVENDY,Study Day of End of Visit,integer,8,,,No,,Derived,,ENDY,,Timing,
11,SV,SVUPDES,Description of Unplanned Visit,text,96,,,No,,Assigned,,,,Synonym Qualifier,
1,TA,STUDYID,Study Identifier,text,8,,,Yes,,Protocol,,,,Identifier,
2,TA,DOMAIN,Domain Abbreviation,text,2,,,Yes,,Assigned,,,,Identifier,
3,TA,ARMCD,Planned Arm Code,text,19,,,Yes,ARMCD,Assigned,,,,Topic,
4,TA,ARM,Description of Planned Arm,text,57,,,Yes,ARM,Protocol,,,,Synonym Qualifier,
5,TA,TAETORD,Order of Element within Arm,integer,8,,,Yes,,Protocol,,,,Timing,
6,TA,ETCD,Element Code,text,6,,,Yes,ETCD,Assigned,,,,Record Qualifier,
7,TA,ELEMENT,Description of Element,text,19,,,No,ELEMENT,Protocol,,,,Synonym Qualifier,
8,TA,TABRANCH,Branch,text,37,,,No,,Protocol,,,,Rule,
9,TA,TATRANS,Transition Rule,text,55,,,No,,Protocol,,,,Rule,
10,TA,EPOCH,Epoch,text,23,,,Yes,EPOCH,Protocol,,,,Timing,
1,TE,STUDYID,Study Identifier,text,8,,,Yes,,Protocol,,,,Identifier,
2,TE,DOMAIN,Domain Abbreviation,text,2,,,Yes,,Assigned,,,,Identifier,
3,TE,ETCD,Element Code,text,6,,,Yes,ETCD,Assigned,,,,Topic,
4,TE,ELEMENT,Description of Element,text,23,,,Yes,ELEMENT,Protocol,,,,Synonym Qualifier,
5,TE,TESTRL,Rule for Start of Element,text,63,,,Yes,,Protocol,,,,Rule,
6,TE,TEENRL,Rule for End of Element,text,46,,,No,,Protocol,,,,Rule,
7,TE,TEDUR,Planned Duration of Element,text,6,,,No,,Protocol,,,,Timing,
1,TI,STUDYID,Study Identifier,text,8,,,Yes,,Protocol,,,,Identifier,
2,TI,DOMAIN,Domain Abbreviation,text,2,,,Yes,,Assigned,,,,Identifier,
3,TI,IETESTCD,Incl/Excl Criterion Short Name,text,4,,,Yes,IETESTCD,Assigned,,,,Topic,
4,TI,IETEST,Inclusion/Exclusion Criterion,text,200,,,Yes,IETEST,Assigned,,,,Synonym Qualifier,
5,TI,IECAT,Inclusion/Exclusion Category,text,9,,,Yes,IECAT,Assigned,,,,Grouping Qualifier,
6,TI,TIVERS,Protocol Criteria Versions,text,1,,,No,,Assigned,,,,Record Qualifier,
1,TS,STUDYID,Study Identifier,text,8,,,Yes,,Protocol,,,,Identifier,
2,TS,DOMAIN,Domain Abbreviation,text,2,,,Yes,,Assigned,,,,Identifier,
3,TS,TSSEQ,Sequence Number,integer,8,,,Yes,,Derived,,SEQUENCE,,Identifier,
4,TS,TSPARMCD,Trial Summary Parameter Short Name,text,8,,,Yes,TSPARMCD,Assigned,,,,Topic,
5,TS,TSPARM,Trial Summary Parameter,text,40,,,Yes,TSPARM,Assigned,,,,Synonym Qualifier,
6,TS,TSVAL,Parameter Value,text,200,,,No,,Assigned,,,,Result Qualifier,
7,TS,TSVAL1,Parameter Value 1,text,24,,,No,,Assigned,,,,Result Qualifier,
8,TS,TSVAL2,Parameter Value 2,text,71,,,No,,Assigned,,,,Result Qualifier,
9,TS,TSVAL3,Parameter Value 3,text,87,,,No,,Assigned,,,,Result Qualifier,
10,TS,TSVALCD,Parameter Value Code,text,11,,,No,,Assigned,,,,Result Qualifier,
11,TS,TSVCDREF,Name of the Reference Terminology,text,8,,,No,,Assigned,,,,Result Qualifier,
12,TS,TSVCDVER,Version of the Reference Terminology,datetime,,,,No,,Assigned,,,,Result Qualifier,
1,TV,STUDYID,Study Identifier,text,8,,,Yes,,Protocol,,,,Identifier,
2,TV,DOMAIN,Domain Abbreviation,text,2,,,Yes,,Assigned,,,,Identifier,
3,TV,VISITNUM,Visit Number,integer,8,,,Yes,,Assigned,,,,Topic,
4,TV,VISIT,Visit Name,text,34,,,No,,Protocol,,,,Synonym Qualifier,
5,TV,ARMCD,Planned Arm Code,text,1,,,No,ARMCD,Assigned,,,,Record Qualifier,
6,TV,TVSTRL,Visit Start Rule,text,40,,,Yes,,Protocol,,,,Rule,
7,TV,TVENRL,Visit End Rule,text,70,,,No,,Protocol,,,,Rule,
1,VS,STUDYID,Study Identifier,text,8,,,Yes,,Protocol,,,,Identifier,
2,VS,DOMAIN,Domain Abbreviation,text,2,,,Yes,,Assigned,,,,Identifier,
3,VS,USUBJID,Unique Subject Identifier,text,19,,,No,,Derived,,USUBJID,,Identifier,
4,VS,VSSEQ,Sequence Number,integer,8,,,Yes,,Derived,,SEQUENCE,,Identifier,
5,VS,VSTESTCD,Vital Signs Test Short Name,text,6,,,Yes,VSTESTCD,CRF,"11, 19",,,Topic,
6,VS,VSTEST,Vital Signs Test Name,text,24,,,Yes,VSTEST,CRF,"11, 19",,,Synonym Qualifier,
7,VS,VSPOS,Vital Signs Position of Subject,text,8,,,No,VSPOS,CRF,"11, 19",,,Record Qualifier,
8,VS,VSORRES,Result or Finding in Original Units,text,5,,,No,,CRF,"11, 19",,,Result Qualifier,
9,VS,VSORRESU,Original Units,text,11,,,No,VSORRESU,CRF,"11, 19",,,Variable Qualifier,
10,VS,VSSTRESC,Character Result/Finding in Std Format,text,5,,,No,,CRF,"11, 19",,,Result Qualifier,
11,VS,VSSTRESN,Numeric Result/Finding in Standard Units,float,4,1,,No,,Derived,,STRESN,,Result Qualifier,
12,VS,VSSTRESU,Standard Units,text,11,,,No,VSSTRESU,CRF,"11, 19",,,Variable Qualifier,
13,VS,VSSTAT,Completion Status,text,8,,,No,ND,Assigned,,,,Record Qualifier,
14,VS,VSLOC,Location of Vital Signs Measurement,text,3,,,No,VSLOC,CRF,"11, 19",,,Record Qualifier,
15,VS,VSLAT,Laterality,text,5,,,No,VSLAT,CRF,"11, 19",,,Record Qualifier,
16,VS,VSBLFL,Baseline Flag,text,1,,,No,Y,Derived,,BASELINE,,Record Qualifier,
17,VS,VISITNUM,Visit Number,float,4,1,,No,,CRF,"11, 37, 45, 51, 64",,,Timing,
18,VS,VISIT,Visit Name,text,33,,,No,,Assigned,,,,Timing,
19,VS,EPOCH,Epoch,text,9,,,No,EPOCH,Derived,,EPOCHMERGE,,Timing,
20,VS,VSDTC,Date/Time of Measurements,datetime,,,,No,,CRF,"11, 37, 45, 51, 64",,,Timing,
21,VS,VSDY,Study Day of Vital Signs,integer,8,,,No,,Derived,,STDY,,Timing,
